Folder: labo/2021/xrd/cif_files/pyn

File: pynmofsim.csv
angle,Int
1,0.00000000000000
1.4,0.01074
1.8,0.00779
2.2,0.00638
2.6,0.00573
3,0.00556
3.4,0.00584
3.8,0.00667
4.2,0.00847
4.6,0.01258
5,0.02475
5.4,0.10333
5.8,1.2189
6.2,0.05085
6.6,27.3311
7,0.01819
7.4,0.00523
7.8,0.00263
8.2,0.00192
8.6,0.00176
9,0.00336
9.4,0.07648
9.8,0.00228
10.2,0.00236
10.6,0.00622
11,0.48661
11.4,0.74662
11.8,0.01025
12.2,0.00274
12.6,0.00227
13,0.01075
13.4,0.01628
13.8,0.00162
14.2,0.00083
14.6,0.00342
15,0.00274
15.4,0.00031
15.8,0.00019
16.2,0.07157
16.6,0.0008
17,0.00588
17.4,0.00633
17.8,0.00078
18.2,0.00067
18.6,0.00336
19,0.00225
19.4,0.00941
19.8,0.05466
20.2,0.00455
20.6,0.00116
21,0.03599
21.4,0.00058
21.8,0.09794
22.2,0.00069
22.6,0.00046
23,0.02717
23.4,0.00332
23.8,0.11222
24.2,0.00306
24.6,0.0031
25,0.01583
25.4,0.00937
25.8,0.00348
26.2,0.00204
26.6,0.6181
27,0.00253
27.4,0.0458
27.8,0.00185
28.2,0.02346
28.6,0.00325
29,0.04621
29.4,0.00204
29.8,0.0022
30.2,0.0121
30.6,0.03742
31,0.00327
31.4,0.15761
31.8,0.00525
32.2,0.00075
32.6,0.00197
33,0.00353
33.4,0.06974
33.8,0.0024
34.2,0.06848
34.6,0.08687
35,0.00963
35.4,0.00144
35.8,0.00354
36.2,0.10929
36.6,0.00197
37,0.00708
37.4,0.01683
37.8,0.00186
38.2,0.00279
38.6,0.01722
39,0.00478
39.4,0.00987
39.8,0.02452
40.2,0.00369
40.6,0.00693
41,0.02333
41.4,0.00235
41.8,0.00431
42.2,0.00436
42.6,0.00253
43,0.01809
43.4,0.03262
43.8,0.20059
44.2,0.34147
44.6,0.00401
45,0.00275
45.4,0.12035
45.8,0.0015
46.2,0.00133
46.6,0.00087
47,0.01975
47.4,0.00681
47.8,0.00354
48.2,0.0131
48.6,0.04671
49,0.06501
49.4,0.11119
49.8,0.0039
50.2,0.00986
50.6,0.00282
51,0.00622
51.4,0.0384
51.8,0.00205
52.2,0.00096
52.6,0.00674
53,0.00271
53.4,0.13493
53.8,0.03101
54.2,0.14381
54.6,0.00407
55,0.00887
55.4,0.02932
55.8,0.01043
56.2,0.04314
56.6,0.00654
57,0.07545
57.4,0.00412
57.8,0.0105
58.2,0.00408
58.6,0.04455
59,0.02296
59.4,0.02443
59.8,0.07573
60.2,0.01219
60.6,0.07869
61,0.00408
61.4,0.03122
61.8,0.00181
62.2,0.03396
62.6,0.00785
63,0.02105
63.4,0.00524
63.8,0.02136
64.2,0.01653
64.6,0.01012
65,0.01672
65.4,0.00443
65.8,0.02839
66.2,0.00632
66.6,0.03159
67,0.00185
67.4,0.01218
67.8,0.03452
68.2,0.00138
68.6,0.00573
69,0.01701
69.4,0.01347
69.8,0.02455
70.2,0.00822
70.6,0.0115
71,0.00624
71.4,0.00842
71.8,0.00451
72.2,0.00866
72.6,0.00767
73,0.00336
73.4,0.0032
73.8,0.0095
74.2,0.00534
74.6,0.00765
75,0.001
75.4,0.0046
75.8,0.00532
76.2,0.00344
76.6,0.00227
77,0.01996
77.4,0.002
77.8,0.00379
78.2,0.00183
78.6,0.00933
79,0.00962
79.4,0.00545
79.8,0.00149
80.2,0.00635
80.6,0.00494
81,0.00297
81.4,0.00194
81.8,0.00675
82.2,0.01181
82.6,0.00811
83,0.02702
83.4,0.00634
83.8,0.04843
84.2,0.00521
84.6,0.0164
85,0.00689
85.4,0.016
85.8,0.00499
86.2,0.01476
86.6,0.00427
87,0.00313
87.4,0.00342
87.8,0.00444
88.2,0.00585
88.6,0.0077
89,0.00329
89.4,0.00916
89.8,0.01473
90.2,0.00961
90.6,0.02882
91,0.01084
91.4,0.01653
91.8,0.00239
92.2,0.01547
92.6,0.013
93,0.00497
93.4,0.00349
93.8,0.02316
94.2,0.01055
94.6,0.00442
95,0.00339
95.4,0.00463
95.8,0.00208
96.2,0.0017
96.6,0.00513
97,0.00947
97.4,0.01118
97.8,0.01384
98.2,0.01184
98.6,0.01039
99,0.02088
99.4,0.0065
99.8,0.00697
100.2,0.00555
100.6,0.00529
101,0.00639
101.4,0.00902
101.8,0.02779
102.2,0.01872
102.6,0.00336
103,0.00722
103.4,0.00362
103.8,0.00586
104.2,0.00237
104.6,0.00369
105,0.00217
105.4,0.00199
105.8,0.00266
106.2,0.00631
106.6,0.01077
107,0.00764
107.4,0.00384
107.8,0.00287
108.2,0.00167
108.6,0.00117
109,0.00403
109.4,0.00645
109.8,0.00449
110.2,0.00333
110.6,0.00472
111,0.00682
111.4,0.00774
111.8,0.00421
112.2,0.00208
112.6,0.01076
113,0.00805
113.4,0.00456
113.8,0.00584
114.2,0.00433
114.6,0.00703
115,0.0065
115.4,0.00786
115.8,0.01037
116.2,0.00595
116.6,0.01892
117,0.00838
117.4,0.00774
117.8,0.00572
118.2,0.00737
118.6,0.00419
119,0.00325
119.4,0.00526
119.8,0.00777
119.99,0.00576