Folder: labo/2021/xrd/raw_data/asc (part 2)

File: #8139_4_40_R12_1_8_M15_P0026_T200 _1.ASC
4,00993028 0 261,335034008072
4,19193028 -4049,01403973341 225,489338498749
4,37393028 1859,66629758339 214,190147283578
4,55593028 34277,1125831693 253,854325012031
4,73793028 18501,2718081188 218,444820231233
4,91993028 1605,50482909001 188,780785049611
5,10193028 365,16906685834 181,310613742399
5,28393028 -109,223173663835 176,029263885175
5,46593028 -258,437668247287 172,317704525757
5,64793028 -82,9300035867163 170,490080119692
5,82993028 -93,5085796530002 169,834729027406
6,01193028 -111,136199476154 171,197123325314
6,19393028 311,336223459166 174,780631847257
6,37593028 5611,33311961655 189,761008415109
6,55793028 13827,8238162491 214,874897818087
6,73993028 2469,44403093544 184,974598044017
6,92193028 1932,20226164123 175,905364147907
7,10393028 1848,06514158111 168,853715798807
7,28593028 1768,37792719414 163,007327900514
7,46793028 1488,19470680811 157,699143584493
7,64993028 1247,87784984215 153,52080122981
7,83193028 5761,26667638113 158,314008102334
8,01393028 10159,5741973498 163,533983336868
8,19593028 1139,24435377022 148,266230199118
8,37793028 567,294930114562 147,429030998628
8,55993028 293,630415308655 147,732953269097
8,74193028 107,757620900262 148,950297647784
8,92393028 612,198226668768 152,594523266698
9,10593028 6008,79210506475 170,230877681025
9,28793028 2886,48178068578 163,513812214275
9,46993028 34,2127637333706 147,79798705106
9,65193028 9,00897997446009 141,572826920276
9,83393028 42,6787272420952 136,431048275474
10,01593028 30,8900599930967 132,042009974217
10,19793028 920,998310929614 130,24567436274
10,37993028 465,105587174707 126,406884960633
10,56193028 105,675826429971 123,678742510635
10,74393028 176,972534660532 122,568374193144
10,92593028 130,521654600805 122,263779054268
11,10793028 1433,38594511597 126,07758234502
11,28993028 2517,42674131005 131,320433091444
11,47193028 -2,40199707591273 126,909354617399
11,65393028 -78,1903568809084 129,533946898235
11,83593028 -70,0906399648338 132,838513335355
12,01793028 186,044118233986 130,058034004144
12,19993028 -7,69190834358233 124,520642490388
12,38193028 -12,6118470950478 120,263692418994
12,56393028 -97,5718926943264 116,598471598998
12,74593028 0 114,086786499327
12,92793028 10,1839784690419 112,153133919498
13,10993028 21,6042160609013 110,942419993536
13,29193028 7,54736306359428 110,573094019269
13,47393028 89,1762527255169 111,152746613545
13,65593028 1799,88733932756 116,158155885232
13,83793028 1879,63885168621 118,918670474658
14,01993028 194,544685877354 116,468991719488
14,20193028 33,4492679798223 118,724301413118
14,38393028 4,11666028612945 121,957363128954
14,56593028 -145,60919839541 121,557651379971
14,74793028 35,7717383814525 117,936061928388
14,92993028 85,8618092202305 114,231716700768
15,11193028 -83,0774289291394 110,428726033983
15,29393028 -10,8278153821147 107,883541594875
15,47593028 44,4977288747232 106,120062229417
15,65793028 121,60667202039 105,150568767045
15,83993028 317,688630433402 105,281851688719
16,02193028 114,152191002748 105,090881176722
16,20393028 74,3201049909912 105,970061185927
16,38593028 107,894776628602 107,670781089761
16,56793028 268,609288627857 110,354936246179
16,74993028 112,846589030098 112,718243136672
16,93193028 147,989586830403 116,321670222173
17,11393028 252,879213449688 120,57703788947
17,29593028 42,2479783737017 115,68128138547
17,47793028 74,5446657499715 112,296075102246
17,65993028 90,5208778754877 109,402732420866
17,84193028 193,836396230328 107,303924651885
18,02393028 85,3440972762146 105,168984071931
18,20593028 100,490966476421 104,017423761515
18,38793028 494,432881479677 104,479355647298
18,56993028 145,606060510143 103,80313294221
18,75193028 377,612119412937 105,235283955863
18,93393028 1113,6064811498 108,803554195843
19,11593028 62,0223423967509 108,004859743322
19,29793028 163,45684514075 110,959592913985
19,47993028 173,662012370102 114,173401958085
19,66193028 299,97753534807 118,489093122938
19,84393028 345,786506058377 117,641048154629
20,02593028 546,976823138778 114,638128528519
20,20793028 321,895981214303 110,479800789105
20,38993028 413,245658170377 108,016875033899
20,57193028 860,21629285532 107,017599910285
20,75393028 387,709204593785 104,29959726928
20,93593028 725,076042570247 104,344602628992
21,11793028 941,777055672375 104,69868645346
21,29993028 189,123357530568 103,374841661564
21,48193028 369,927440450683 104,993340905309
21,66393028 424,586334181981 107,197540538203
21,84593028 209,963699925819 108,854442070164
22,02793028 261,787342079374 112,052605666146
22,20993028 205,905137859191 115,310128250556
22,39193028 330,031026864654 117,924929346314
22,57393028 592,023285065294 114,844947820546
22,75593028 176,069834445183 109,902794528359
22,93793028 242,571676101523 107,125242498899
23,11993028 173,906460608304 104,621703793858
23,30193028 405,52564962582 103,545260349462
23,48393028 849,658009548407 103,412841784352
23,66593028 191,729166591318 101,373206954138
23,84793028 130,687367989448 101,393790657587
24,02993028 58,0077255353472 102,114583491785
24,21193028 111,961683481463 103,764112458561
24,39393028 21,4397122965365 105,373674520021
24,57593028 148,820958010218 108,562695713636
24,75793028 376,9091422873 112,539163396244
24,93993028 78,9953468931371 115,008629732118
25,12193028 255,435417148758 113,106971011188
25,30393028 149,201569923064 109,08654202639
25,48593028 -30,1162513695481 105,333271785273
25,66793028 177,268455715022 103,390935491283
25,84993028 143,078395882244 101,33280827285
26,03193028 92,7258349938165 99,7928789438577
26,21393028 256,116274845414 99,4705453151452
26,39593028 452,188568916368 99,8273200577085
26,57793028 330,229998139501 100,098980902861
26,75993028 455,857962962038 101,667629298824
26,94193028 668,065476959116 104,219214202624
27,12393028 386,746590551984 105,546558082479
27,30593028 462,383150117201 108,822390910055
27,48793028 347,944720366097 111,703135069516
27,66993028 390,924962257648 112,22158994135
27,85193028 470,909166535363 108,587667202403
28,03393028 940,284680104126 106,736568915643
28,21593028 412,083059102874 102,005968005824
28,39793028 408,390706368053 99,7376906145491
28,57993028 319,484194409718 97,7522954507322
28,76193028 305,413291446654 96,6804545539114
28,94393028 280,993067179411 96,1943449292542
29,12593028 454,724568106513 96,854700629691
29,30793028 396,825550780422 97,4406762378756
29,48993028 581,783955572471 99,4481903755888
29,67193028 508,901183402631 101,345986691677
29,85393028 248,098488423118 102,825767960642
30,03593028 345,515026730256 106,217882087762
30,21793028 373,613522086725 109,542214464481
30,39993028 355,716747424828 105,454799006066
30,58193028 447,311732674589 102,20819993647
30,76393028 433,268810752674 99,0912276934627
30,94593028 132,154304166318 95,4948038873507
31,12793028 287,205570255832 94,1521798463559
31,30993028 366,794534657576 92,9666552458917
31,49193028 173,567656142394 91,6841520613939
31,67393028 175,393494208951 91,5743492484324
31,85593028 259,12180883245 92,2428540598514
32,03793028 224,964406295268 93,1932154738077
32,21993028 211,699151767793 94,7529124116277
32,40193028 113,709442245628 96,3418770678319
32,58393028 322,281142594989 99,6701600231527
32,76593028 376,284092507888 102,902188226023
32,94793028 101,613982967386 100,286818142581
33,12993028 149,353349281636 96,9253013967679
33,31193028 77,4289460876371 93,6024463079443
33,49393028 64,0598923796606 90,873218782494
33,67593028 217,456927249622 89,3109152689432
33,85793028 120,688700951403 87,4926201771669
34,03993028 313,432124035657 87,0603009310176
34,22193028 170,324205928472 86,2379745369417
34,40393028 102,757737584429 86,2023075163522
34,58593028 33,0983250923236 86,78266534599
34,76793028 37,4981580883859 88,0224189726916
34,94993028 153,834684544653 90,258705186962
35,13193028 138,450984572292 92,430274627197
35,31393028 102,558698364289 94,8818968320122
35,49593028 58,7425281745582 96,0833120289141
35,67793028 244,686545763981 93,4968734909317
35,85993028 125,009342770297 89,9774472212747
36,04193028 44,5156578998558 86,9631151072427
36,22393028 132,820868744705 85,2769563424331
36,40593028 94,8784696625326 83,5359957973902
36,58793028 104,8420623562 82,4865774829397
36,76993028 61,322967081348 81,8684428444554
36,95193028 53,3432990183419 81,853726435647
37,13393028 87,4411396634414 82,4191067741037
37,31593028 184,665082358754 83,8345544984427
37,49793028 97,2275566748849 85,0288843975392
37,67993028 64,4706678399489 86,7923565256051
37,86193028 53,5648416582899 89,1456370384754
38,04393028 186,541720319701 92,5740488049476
38,22593028 91,9173527863786 89,9186183748177
38,40793028 101,064543587367 87,0162112633706
38,58993028 214,189131775894 85,0345330133647
38,77193028 99,0651355291357 82,5800660949704
38,95393028 8,25270510225528 80,6730690033812
39,13593028 84,7470834888045 79,9071178389071
39,31793028 -4,39087714128073 79,1549026215486
39,49993028 146,873675700297 79,8033307609707
39,68193028 54,9326682207766 80,2325513573659
39,86393028 60,0227106071188 81,5015219437751
39,96793028 1,83897206684378 82,1029915815047

File: #8201_Pyn-MOF_4_40_R12_1_8_M15_P0026_T200 _1.ASC
4,00993028 0 253,152128175925
4,19193028 -2898,85384758399 208,016385149065
4,37393028 -122,548447837315 180,818905878232
4,55593028 -402,231242792164 166,927462307177
4,73793028 -254,874806065147 157,868914036859
4,91993028 -111,858584947002 152,041372654493
5,10193028 -375,345506628186 147,502037446619
5,28393028 -117,048195897805 145,117533537842
5,46593028 -138,069684791606 143,186291153221
5,64793028 -22,5094581586964 142,303679110596
5,82993028 76,5903515390492 142,25768579677
6,01193028 192,2401705214 143,451782209113
6,19393028 25,4670804033431 144,698342820766
6,37593028 -9,73871185648022 146,907388022435
6,55793028 427,660500432314 151,370349081258
6,73993028 65,4781696273676 148,048864519299
6,92193028 189,872326318709 142,677892121381
7,10393028 11,1501272972855 137,12280304664
7,28593028 122,914220051975 133,246095249669
7,46793028 26,5161299335032 129,820507658688
7,64993028 70,6334951139943 127,463206696687
7,83193028 21,3886567030258 125,723955338159
8,01393028 274,331724009255 125,463862822908
8,19593028 3248,55905244877 131,368280842568
8,37793028 2038,16196197509 130,431568877211
8,55993028 1057,91835809165 129,70612818475
8,74193028 4843,38065938676 141,126030084674
8,92393028 32218,1899431148 205,617361756492
9,10593028 10640,0758675271 167,477177412481
9,28793028 3235,15188638592 148,450706083503
9,46993028 4227,02505160915 145,085174322213
9,65193028 1165,43550543689 130,78182705575
9,83393028 429,777232005268 124,724638112731
10,01593028 935,420142058545 122,592886721997
10,19793028 4124,12498470434 126,798645399401
10,37993028 1142,70725230133 118,236300091056
10,56193028 0 114,691260087723
10,74393028 -7,92068131032647 114,410241686119
10,92593028 54,6993694851517 115,121778673707
11,10793028 501,127948083607 117,358155744105
11,28993028 4827,04676549446 130,621452282458
11,47193028 604,491504720081 122,490157258367
11,65393028 315,116805596239 124,658529311322
11,83593028 946,627393961485 130,641265659163
12,01793028 5184,58419316248 141,579940217148
12,19993028 10754,1657725918 150,646167799716
12,38193028 19888,9003291204 164,817140011996
12,56393028 62797,4192783337 227,93286225459
12,74593028 26628,6847263625 161,626215030561
12,92793028 3613,62165063738 116,260811158415
13,10993028 1349,68139099705 110,02277271545
13,29193028 2704,03355612439 112,575145809585
13,47393028 1702,26013994319 110,886622467282
13,65593028 260,562338081751 108,096268029618
13,83793028 -11,5595797832848 108,771491909627
14,01993028 63,5524890466304 111,001895211195
14,20193028 102,76893289893 113,880201624709
14,38393028 40,1288141272626 116,777725608839
14,56593028 1120,93235082194 121,3227405231
14,74793028 6267,23113021859 133,732556984711
14,92993028 1233,52174070515 112,713917512326
15,11193028 191,790932366465 106,39720940091
15,29393028 111,400673588236 103,574870790852
15,47593028 710,549898412629 103,333296041586
15,65793028 3013,37273657305 107,581083368484
15,83993028 381,303518616524 100,683653460781
16,02193028 62,2323741702521 99,9542747231942
16,20393028 121,954413322162 100,865340286953
16,38593028 58,5764398423971 102,074416985478
16,56793028 365,988550987689 104,907919178646
16,74993028 -4,63614830361985 106,073431049783
16,93193028 23,9703390287168 109,039231179467
17,11393028 481,866627623317 114,300936782247
17,29593028 719,46432043824 110,911910451287
17,47793028 186,615311826753 105,196780458503
17,65993028 160,41110584821 101,96665030009
17,84193028 525,409616862112 100,403420530864
18,02393028 2284,71148147445 103,064333276031
18,20593028 373,010308678484 96,410704961574
18,38793028 -6,58907766614175 94,583538415296
18,56993028 144,063276613174 94,8022523073137
18,75193028 154,501260560477 95,4391592170452
18,93393028 213,269680555528 96,8950393642913
19,11593028 486,047730820783 99,9824588506852
19,29793028 19,8672275881008 100,794130257532
19,47993028 116,438696805159 104,096861195917
19,66193028 96,0608946218108 107,478608030387
19,84393028 185,987232504306 107,040176251793
20,02593028 114,134581723421 103,483390764322
20,20793028 341,360631612257 101,577275797637
20,38993028 240,050482448527 99,0427213231484
20,57193028 -26,0464940219899 96,5811573262473
20,75393028 506,095973960757 97,1383144868087
20,93593028 151,055648233415 95,6376978043852
21,11793028 184,724458556396 95,8684534710506
21,29993028 1788,24486775271 100,794451891256
21,48193028 1671,27107885818 102,391867496876
21,66393028 671,035109578576 101,446787816192
21,84593028 1760,59344082156 107,724573745029
22,02793028 703,452199630015 107,788750416354
22,20993028 42,362569271042 108,823553228081
22,39193028 -32,98601875643 110,823036658324
22,57393028 43,4636692852382 107,811368446213
22,75593028 445,452772608653 106,269284846803
22,93793028 155,283043678597 102,711788973616
23,11993028 206,80694513195 100,977455902483
23,30193028 128,003141936099 99,3879930101152
23,48393028 392,298849000373 99,3199729543361
23,66593028 778,115284566582 100,108725655948
23,84793028 2469,37903097423 104,758905288069
24,02993028 3743,05000765262 109,312315736494
24,21193028 1908,19819417752 106,954139702765
24,39393028 1890,61971436078 109,249649987865
24,57593028 4776,3458693998 121,8163571827
24,75793028 6832,85418559791 133,568380731135
24,93993028 6623,52647506066 139,026223650088
25,12193028 14043,910234615 158,045390683759
25,30393028 18922,6108674917 162,092947149311
25,48593028 12392,3522611315 138,896455252763
25,66793028 2541,05356108956 109,550196791366
25,84993028 2297,33600995475 106,765666186769
26,03193028 1802,53578872673 103,858435712224
26,21393028 1531,29020256888 102,478328401551
26,39593028 4709,04287106711 109,893850701209
26,57793028 4054,31927572017 109,55917874759
26,75993028 2584,76401153653 107,243854935852
26,94193028 2631,64825971732 109,852265013478
27,12393028 2945,26737529274 113,722239546046
27,30593028 6453,7006062441 128,432141425964
27,48793028 33733,5458034267 207,206325081654
27,66993028 55538,5242643208 253,7551996643
27,85193028 13356,915716917 148,591842105912
28,03393028 5829,52471617792 121,547887153575
28,21593028 3870,88378482336 111,532044335822
28,39793028 1817,72286856766 102,832676154717
28,57993028 1237,38869511703 99,2793271366177
28,76193028 2397,06224798449 100,925635576381
28,94393028 6832,87802415343 110,758174789733
29,12593028 2833,54650093115 101,610276164571
29,30793028 887,458280793496 97,1131777971627
29,48993028 737,243951749478 97,9944760257149
29,67193028 939,768917781557 100,477762497528
29,85393028 810,730800191837 102,361662053586
30,03593028 511,601710980516 103,906950045363
30,21793028 587,195965878574 107,1200535235
30,39993028 475,645094475383 102,340899804737
30,58193028 245,162215984376 97,6108623947288
30,76393028 141,630578881991 94,1259064178835
30,94593028 200,841058177494 91,7558055737611
31,12793028 235,19090090186 89,6416426856956
31,30993028 442,864840413804 88,707391326053
31,49193028 858,199195201008 88,8894894870068
31,67393028 709,814385006182 88,0966075825253
31,85593028 303,036785737998 87,1139881412332
32,03793028 209,640740365458 87,447930799691
32,21993028 100,665492135447 88,3144141247109
32,40193028 0 89,4120059158332
32,58393028 -35,2765912832556 91,4643355039696
32,76593028 78,8126859635731 94,5883116336024
32,94793028 301,519224064919 94,4711617157855
33,12993028 198,166087049855 90,5072839321621
33,31193028 226,916110171587 87,7772692731874
33,49393028 340,547164894821 85,6619625829052
33,67593028 590,464363110251 84,3786909388147
33,85793028 405,496607540704 82,2146153526087
34,03993028 483,414279357038 81,4646337497486
34,22193028 1614,95288122528 84,4335601829254
34,40393028 1675,9528821919 84,9513364292662
34,58593028 354,041370170071 81,2811562785649
34,76793028 332,520406737759 82,4208945005125
34,94993028 929,182086867437 86,2898693360144
35,13193028 627,828152656463 87,2646286901826
35,31393028 223,106179539623 87,742029160866
35,49593028 11,5761640535297 87,7809166248343
35,67793028 13,0635997660088 84,4553174269074
35,85993028 48,7606284348881 81,7686790058649
36,04193028 -0,395804344386761 79,0229405859198
36,22393028 24,3370928257973 77,1327308919474
36,40593028 79,8688851300376 75,6279833304715
36,58793028 99,4579735415223 74,5508475931469
36,76993028 0 73,5882599008216
36,95193028 -80,2197159200291 73,490307221282
37,13393028 191,145270601813 75,111270392573
37,31593028 127,253829128019 75,9481625455923
37,49793028 109,48946438438 77,5355513970822
37,67993028 141,658080416255 79,6283398901259
37,86193028 318,358674486313 82,9225841256392
38,04393028 204,395688312602 85,1039317149066
38,22593028 49,5194467146976 82,2637229044649
38,40793028 54,6699885606567 79,7845968927188
38,58993028 241,918015925034 78,327342905075
38,77193028 212,898453254554 76,4190776711807
38,95393028 580,606078729429 76,2902514360791
39,13593028 304,918248056224 74,3133280272084
39,31793028 -7,27937479121329 72,9163587596624
39,49993028 -139,847621571787 72,9360635189505
39,68193028 9,03734794353386 74,4451514720644
39,86393028 183,291504541078 76,467930836217
39,96793028 6,03477572559859 76,8553308674895