Folder: labo/2021/xrd/raw_data/asc

File: #8137_4_40_R12_1_8_M15_P0026_T200 _1.ASC
4,00993028 0 260,47648646279
4,19193028 -3122,1324839839 237,850426965949
4,37393028 28297,9211455402 272,308930628901
4,55593028 89122,74241104 318,147669631053
4,73793028 3495,99712241542 204,575957754582
4,91993028 271,433699978785 187,61165559522
5,10193028 366,058479509629 176,343769167258
5,28393028 -157,929589198757 165,809351169929
5,46593028 -246,91411068826 161,645448240017
5,64793028 -316,126089038573 159,385806910872
5,82993028 -114,232001981765 159,987161518758
6,01193028 315,666498707145 162,560131342516
6,19393028 3859,44727167329 173,040658835895
6,37593028 38889,4240659521 245,21634987668
6,55793028 8165,77357446507 194,458738122405
6,73993028 5336,13479290441 184,924768987705
6,92193028 4491,14596213513 175,363928817611
7,10393028 3515,31295511646 166,638968427886
7,28593028 3065,95015565084 160,574409534884
7,46793028 2919,9020502186 156,069656065718
7,64993028 4666,89512649997 155,931929172587
7,83193028 36249,4027908968 199,05773133514
8,01393028 4087,34384025845 151,618683693681
8,19593028 1713,44101041938 147,544421995565
8,37793028 1184,4725304769 147,461003697205
8,55993028 1024,67268916649 148,87325075813
8,74193028 985,767418026486 151,310606113051
8,92393028 2949,32469330652 159,151921772045
9,10593028 18205,0165334979 201,974031907753
9,28793028 1346,37413770408 161,569374310065
9,46993028 671,811900193577 153,075703792107
9,65193028 524,170934533578 146,898852026761
9,83393028 337,482222017572 141,5057888348
10,01593028 579,385632441599 137,999306225031
10,19793028 2227,50967954246 137,852987782044
10,37993028 280,777712254941 131,653696888755
10,56193028 186,365773000221 129,920014021797
10,74393028 97,7822157613209 129,004908748183
10,92593028 448,50316349388 129,828509372783
11,10793028 9226,35755463542 148,485877423711
11,28993028 768,861573581751 133,240217438835
11,47193028 4,68378089488215 133,234572466456
11,65393028 -26,8540474323763 135,780322709183
11,83593028 -122,475227049166 138,549440990787
12,01793028 93,6589074684434 135,069721646412
12,19993028 -127,038847198774 128,881891698383
12,38193028 53,1885732225219 124,752085062461
12,56393028 63,3604878404713 121,199995900588
12,74593028 109,758682403512 118,490939321321
12,92793028 125,299803688222 116,385096660787
13,10993028 14,656346944319 114,829945648979
13,29193028 112,391392167478 114,602314071102
13,47393028 563,881890994762 115,811024532508
13,65593028 9370,39517832579 136,292506643852
13,83793028 502,769321071821 118,573722931912
14,01993028 185,244318101537 119,975996882126
14,20193028 -10,2261967633622 122,107001975367
14,38393028 -58,2278542403719 125,137152380501
14,56593028 80,2015193917105 125,785657142997
14,74793028 117,971257971019 121,31385448595
14,92993028 51,6777828573831 116,956095432175
15,11193028 40,6951079705923 113,499205728505
15,29393028 5,06311422344606 110,750974645399
15,47593028 153,05093090645 109,213573816169
15,65793028 137,529325934087 108,024219363786
15,83993028 642,343258873866 108,763071683447
16,02193028 206,78171614638 108,02000528292
16,20393028 116,162491520391 108,747532952469
16,38593028 158,125143556604 110,668145711557
16,56793028 89,5929008707717 113,020284135376
16,74993028 141,911767456211 116,294768003641
16,93193028 84,0225444362059 119,673058834302
17,11393028 271,366821840269 124,424211054917
17,29593028 73,2760324118062 119,5718154864
17,47793028 164,407909507304 116,299892019499
17,65993028 6,87959128537841 112,769952816016
17,84193028 51,0201130248151 110,427526267211
18,02393028 72,623893423096 108,704036393178
18,20593028 370,492210283674 108,296583369769
18,38793028 302,485301137246 107,614600508374
18,56993028 130,461618710317 107,422984312261
18,75193028 657,699919889908 109,533340475845
18,93393028 810,355433358174 111,807611192126
19,11593028 236,149169065112 112,423484516821
19,29793028 159,053024904998 115,038944215082
19,47993028 293,160003498763 118,895016424965
19,66193028 459,408087748928 123,532537265708
19,84393028 321,998215220715 121,989247664969
20,02593028 650,37177976693 119,131223833364
20,20793028 622,743091233765 115,633449746198
20,38993028 1155,63862487198 114,32330875235
20,57193028 1067,17975274158 111,644638584198
20,75393028 636,383508467645 109,010926465614
20,93593028 2430,77866126982 112,304318722664
21,11793028 838,549093595681 108,508890601595
21,29993028 596,874975179549 108,527333794694
21,48193028 1480,07845251752 112,099297144241
21,66393028 579,251891229447 111,691209471617
21,84593028 702,311979482753 114,868535657743
22,02793028 516,417709669774 117,448526466434
22,20993028 729,856645606185 121,918853936786
22,39193028 1184,94386621761 125,982143385697
22,57393028 572,925430980357 119,257485276875
22,75593028 400,472091236052 114,948620578424
22,93793028 754,305195105099 112,969277067722
23,11993028 452,407561059043 109,530676419366
23,30193028 1066,71709795232 109,312578835352
23,48393028 823,081476811704 107,273010020192
23,66593028 321,588233278733 105,646136865657
23,84793028 423,420841356204 106,092262433395
24,02993028 174,434333157387 106,327745878464
24,21193028 261,14272413527 108,084853914909
24,39393028 276,217598701381 110,239383553533
24,57593028 214,985348536877 112,733476982019
24,75793028 442,659919525748 116,856772195214
24,93993028 158,743554481249 119,486915659398
25,12193028 543,733890109387 118,190389425785
25,30393028 388,238731241481 113,720122638382
25,48593028 197,493504964655 109,640174684599
25,66793028 319,010908115065 107,275714702032
25,84993028 161,828016184046 104,67646765885
26,03193028 366,269535240092 103,693294839408
26,21393028 373,187650312639 102,850677360539
26,39593028 618,324058834481 103,270823755327
26,57793028 369,820404864115 103,156175079767
26,75993028 1012,13818695094 106,070532975053
26,94193028 384,954040888721 106,03435285664
27,12393028 463,090153943499 108,567145997112
27,30593028 492,900283844618 111,739551332005
27,48793028 421,859181510043 114,861974614846
27,66993028 309,455759620942 114,649758998866
27,85193028 516,038707487565 111,390585445721
28,03393028 1050,74689089159 109,513093694143
28,21593028 342,163609780767 104,143798282947
28,39793028 509,88542096902 102,199578276282
28,57993028 242,425518439023 99,6604267332579
28,76193028 269,577800870837 98,5378902684145
28,94393028 244,426899751223 97,9681512081161
29,12593028 527,522163685031 98,8167379525592
29,30793028 221,85004669164 98,7195976756212
29,48993028 1110,78566148317 102,70024032453
29,67193028 409,836671705145 102,586252690312
29,85393028 290,516077427789 104,727948552592
30,03593028 129,930395529371 106,909681900433
30,21793028 235,123473852491 110,408752041451
30,39993028 301,6819573712 106,622713614296
30,58193028 399,450579514434 103,259621739574
30,76393028 148,393811105414 99,2520721826433
30,94593028 180,436716014832 96,685002581676
31,12793028 115,182868838029 94,5716954245406
31,30993028 229,672728051092 93,4102443625686
31,49193028 108,410176029719 92,2942734932507
31,67393028 202,010491762499 92,3309174288806
31,85593028 -19,8174723384873 92,0020453294282
32,03793028 58,7493174720476 93,2146224432049
32,21993028 96,9229010810304 94,7916602589356
32,40193028 151,093059123734 96,8727208303588
32,58393028 309,733125846521 100,0015661315
32,76593028 138,284929407069 102,132592485486
32,94793028 104,699408595141 100,590428710137
33,12993028 -34,8430308912111 96,2502535827701
33,31193028 90,8121735694831 93,7630659341676
33,49393028 55,0180638859283 90,8134203939351
33,67593028 217,212353203201 89,3301680980561
33,85793028 108,78820371349 87,3076563276357
34,03993028 262,150408274016 86,7140564791325
34,22193028 -18,2027538591738 85,4029177871778
34,40393028 69,9896841161963 85,6866514611682
34,58593028 9,09494701772928E-13 86,0632224711996
34,76793028 78,1379659556096 87,5641768539977
34,94993028 189,406775008644 89,7000157058536
35,13193028 161,557551186793 91,7212113468694
35,31393028 179,583065937709 94,37497951176
35,49593028 281,297680437703 96,2758480188316
35,67793028 209,586752097985 92,3860554832004
35,85993028 112,884969959457 88,8761450429021
36,04193028 58,0666514811201 85,9888591270536
36,22393028 103,054730846237 83,9769016178491
36,40593028 87,3797575468207 82,3523545203845
36,58793028 95,0206745547848 81,2085265688994
36,76993028 68,4272405850315 80,5468775588572
36,95193028 107,788476959448 80,5671422087699
37,13393028 105,458545528685 80,9931204130831
37,31593028 125,961750577615 81,9879447156589
37,49793028 152,539591244769 83,6207870725557
37,67993028 269,784067648857 85,8955799431799
37,86193028 136,547758652524 87,5287340699093
38,04393028 136,27459058365 90,146108055263
38,22593028 -11,135679294398 87,4571500668258
38,40793028 40,9788582432238 85,1285102194098
38,58993028 95,8805025506144 83,236825920706
38,77193028 11,366964972749 80,9262769769896
38,95393028 13,5318831298123 79,6553668899841
39,13593028 4,95756906808356 78,8465157488844
39,31793028 -39,2157592717945 78,2828624127462
39,49993028 80,3447203779215 78,7447507353742
39,68193028 -20,8858056976114 79,046761616152
39,86393028 89,2522285982059 80,5755045327279
39,96793028 0,488770942193696 81,010019878937

File: #8138_4_40_R12_1_8_M15_P0026_T200 _1.ASC
4,00993028 0 255,064697674923
4,19193028 -4116,98053002469 229,592179644995
4,37393028 18180,2818621252 251,141297962092
4,55593028 144507,229323558 375,057037879588
4,73793028 5192,64670933088 198,211982386514
4,91993028 121,787686816511 177,468474776244
5,10193028 -669,900903052749 167,279448060222
5,28393028 -158,817602867253 161,238189265204
5,46593028 -337,411146903258 158,570324267812
5,64793028 -457,21670246953 157,202616682942
5,82993028 -297,464335441762 157,461151650678
6,01193028 -48,0827948883853 159,428291647144
6,19393028 2110,39238109225 166,817647209655
6,37593028 21735,0428672586 211,727159206548
6,55793028 7142,92999534288 188,782272560847
6,73993028 1951,27715250615 172,526778635439
6,92193028 1285,22913888059 163,879390107077
7,10393028 885,900875499838 156,939971784435
7,28593028 472,643072865985 150,929874309732
7,46793028 772,706121817762 147,53428526248
7,64993028 2193,72898942189 146,809290133362
7,83193028 20203,9905786759 173,355348116708
8,01393028 5716,03323846674 149,174546798272
8,19593028 1135,36519834184 140,744971110763
8,37793028 407,822540631663 139,829461142145
8,55993028 320,81889250407 140,815783031268
8,74193028 206,768100794423 142,332391244919
8,92393028 1373,62040520559 147,946939863205
9,10593028 16678,9508032529 191,205671881404
9,28793028 1485,26138252527 153,65045708996
9,46993028 522,836048437548 144,175701916396
9,65193028 59,109869546528 137,154872495365
9,83393028 58,7571242890681 132,33795561022
10,01593028 384,702972703995 128,928450000288
10,19793028 1775,88649865015 128,463016233446
10,37993028 333,234834759101 122,783091197172
10,56193028 0 120,283688198662
10,74393028 102,402371670063 119,934321146273
10,92593028 292,742829298862 120,545237541048
11,10793028 4365,79601815899 130,324259202135
11,28993028 2122,17451019683 128,186839441819
11,47193028 397,086837387669 125,768058337265
11,65393028 354,344472223858 128,367246264112
11,83593028 27,9405690439962 130,318083406493
12,01793028 -59,9520097145651 126,188124560483
12,19993028 133,846978536667 122,079187761232
12,38193028 83,9003991092031 117,92193408484
12,56393028 275,282117339011 115,18866744143
12,74593028 -9,09494701772928E-13 111,77952896115
12,92793028 94,7962963105892 110,179471564154
13,10993028 -30,1796156366518 108,773806468976
13,29193028 57,8382066574159 108,552402286762
13,47393028 242,915334469968 109,315017622176
13,65593028 4513,8078042315 120,100085791981
13,83793028 1506,29611430273 115,727518399207
14,01993028 9,02572290358057 113,485396748433
14,20193028 28,3825474159948 116,457730365056
14,38393028 120,927017016132 120,096800863722
14,56593028 66,6224195776858 120,099443840329
14,74793028 27,6114032864116 115,651421996642
14,92993028 59,476605335376 112,017171387093
15,11193028 -54,3194522830872 108,446673348313
15,29393028 7,89019877985447 105,970372794108
15,47593028 -100,540083268989 103,768422348556
15,65793028 3,38156905673168 103,064239241849
15,83993028 590,02954318196 104,234345148187
16,02193028 -51,2115108936787 103,130225220986
16,20393028 -24,7514012505771 104,216344933224
16,38593028 3,71755556033349 106,146614689053
16,56793028 155,595916555169 109,070876084756
16,74993028 -18,0982015257696 111,359739628787
16,93193028 -94,0051243997023 114,479616365081
17,11393028 154,914777260808 119,344355751601
17,29593028 111,960406584555 115,207653769706
17,47793028 -102,776897568258 111,076590970975
17,65993028 81,8599179491312 108,812171034154
17,84193028 -18,2063273815938 106,230888417042
18,02393028 -2,77235755936272 104,474343250252
18,20593028 207,590655839007 103,919842068125
18,38793028 559,449773527097 104,286107129436
18,56993028 123,468792030143 103,464052185832
18,75193028 149,612196466983 104,318431613863
18,93393028 1634,86675910664 110,002861323657
19,11593028 380,027315325437 108,853717071212
19,29793028 221,896105803712 110,994117072599
19,47993028 356,887252878366 114,878495538398
19,66193028 362,128869387852 118,728947658778
19,84393028 487,723128076482 118,308330566046
20,02593028 748,575031657293 115,357642218489
20,20793028 601,41870479119 111,527312723281
20,38993028 559,25118076765 108,648901455194
20,57193028 1577,05228117754 108,998957615434
20,75393028 509,350326794861 104,895052055128
20,93593028 893,483690156175 105,052556303294
21,11793028 1778,68809511112 107,05674317589
21,29993028 538,688588907113 104,603900788938
21,48193028 1009,23388889512 107,127861639935
21,66393028 523,248257573327 107,811786868275
21,84593028 401,469007773366 109,924426005585
22,02793028 537,027488059577 113,568221579354
22,20993028 417,072272922407 116,68481760232
22,39193028 562,841087025561 119,481596606312
22,57393028 1221,61871481735 117,706408566519
22,75593028 444,294733057277 111,337454868089
22,93793028 626,450673587017 108,953273403629
23,11993028 438,709475003195 105,762852737159
23,30193028 525,212792344659 104,383233811438
23,48393028 1761,68387952878 106,165793513151
23,66593028 302,456750773148 102,2327341413
23,84793028 293,824843275399 102,399972865471
24,02993028 209,581024936499 103,180138467753
24,21193028 216,640903510577 104,532358306038
24,39393028 172,565130769447 106,555020707383
24,57593028 294,353878005065 109,674374072834
24,75793028 823,557111991361 114,851715038839
24,93993028 461,357924125805 117,188173317132
25,12193028 291,888615603745 113,753704926899
25,30393028 283,1856544729 109,896855442232
25,48593028 292,271717244479 106,876381343616
25,66793028 331,410014790672 104,223231086838
25,84993028 363,24322506029 102,356573910373
26,03193028 400,90875880487 100,921648566101
26,21393028 344,863141039567 99,9404524367234
26,39593028 508,067143963931 100,226524961163
26,57793028 550,701304149395 100,907717308393
26,75993028 596,878320604474 102,133096552184
26,94193028 928,137172998811 105,088062876064
27,12393028 379,432683258361 105,591992764701
27,30593028 1298,36077839153 111,950098551739
27,48793028 396,069970018535 111,828563814327
27,66993028 513,3785762189 112,60600578997
27,85193028 452,903202260265 108,469292464268
28,03393028 1284,15553357263 107,817351120658
28,21593028 483,587662229335 102,004040572806
28,39793028 463,439012427352 99,59731805166
28,57993028 397,109092487309 97,6172838519834
28,76193028 189,238799599585 95,9649592084159
28,94393028 230,901382499626 95,5851401060069
29,12593028 327,801148945428 95,9476001199837
29,30793028 389,808218222182 96,9057770327735
29,48993028 694,096980051597 99,0364146719138
29,67193028 860,376328400433 101,895771405647
29,85393028 292,94270289436 102,309919208549
30,03593028 312,118925898928 105,246180631487
30,21793028 202,727002799907 107,784327914401
30,39993028 316,371918392 104,299723329868
30,58193028 301,187936620044 100,587186060232
30,76393028 356,397111656116 97,6511051719672
30,94593028 157,047396300828 94,4992580708407
31,12793028 271,747892603678 92,953819964339
31,30993028 217,490095300692 91,3970456351333
31,49193028 254,291048741462 90,7023864109565
31,67393028 41,2279186105443 89,892141833167
31,85593028 101,952633109286 90,4781034500647
32,03793028 122,360330332393 91,3697982840394
32,21993028 156,219973361648 92,9848683213925
32,40193028 159,920294690355 94,9071206233557
32,58393028 165,684590791238 97,3640501240232
32,76593028 484,808110817789 101,650299584014
32,94793028 274,823772967949 99,3415978452878
33,12993028 220,869012263262 95,3859613588012
33,31193028 60,0549371950119 91,6712836778242
33,49393028 93,0334558156273 89,2222462235011
33,67593028 193,425110586697 87,4420607581608
33,85793028 134,155081990101 85,6475192991683
34,03993028 364,447598669774 85,3600128197642
34,22193028 90,0572404330887 84,0397767237759
34,40393028 93,2799431267904 84,0647046650535
34,58593028 -9,09494701772928E-13 84,4049667828989
34,76793028 94,5146530132661 85,8321903565382
34,94993028 202,038414667439 87,8706730901255
35,13193028 109,88368115396 89,4777445894418
35,31393028 198,365804980631 92,4421006862184
35,49593028 185,664068906952 93,7088767795786
35,67793028 309,295857615032 90,7359177605414
35,85993028 229,382285642078 87,2423000444269
36,04193028 124,513074467087 84,1939089986231
36,22393028 111,378875743936 82,0081834004633
36,40593028 215,439520700007 80,6433807226254
36,58793028 131,955755793115 79,3090162136254
36,76993028 29,7764766039304 78,3319107882837
36,95193028 223,655024007834 78,8184445954584
37,13393028 76,1096613923446 78,7480528556592
37,31593028 178,167570689946 79,9695484904088
37,49793028 360,486152000486 81,9727724303649
37,67993028 258,190574024816 83,4188625176055
37,86193028 254,889426829201 85,4873750151806
38,04393028 12,0023826403772 86,7286964643001
38,22593028 52,7720535360531 85,0991751149612
38,40793028 130,70971399284 82,872764246243
38,58993028 180,726229230796 80,9931500509906
38,77193028 186,973575954707 79,1802172887527
38,95393028 0 77,1296545141486
39,13593028 56,5596455914883 76,6880296896349
39,31793028 -51,9700017310079 76,1707065492498
39,49993028 95,6343306323465 76,8357439226766
39,68193028 48,5646166754286 77,3812260181564
39,86393028 154,704060051375 78,8716959483012
39,96793028 1,7845742364093 79,2678691170564