Folder: labo/2021/xrd/raw_data/csv

File: #8137_4_40_R12_1_8_M15_P0026_T200 _1.csv
[Measurement conditions]
Sample identification,
Comment - 1,"Metodo 1"
Comment - 2,"Configuration=Stage flat sample, Owner=User-1, Creation date=18/05/2016 11:51:59 a.m."
Comment - 3,"Goniometer=Theta/Theta; Minimum step size 2Theta:0.0001; Minimum step size Omega:0.0001"
Comment - 4,"Sample stage=Stage for flat samples/holders"
Comment - 5,"Diffractometer system=EMPYREAN"
Comment - 6,"Measurement program=C:\PANalytical\Data Collector\Programs\4_40_R12_1_8_M15_P0026_T200 .xrdmp, Identifier={16617745-81AC-40A4-8377-9136E38050CA}"
Anode material,Cu
K-Alpha1 wavelength,1.5406
K-Alpha2 wavelength,1.54443
Ratio K-Alpha2/K-Alpha1,0.500
Divergence slit,Fixed,0.76mm
Monochromator used,NO
Generator voltage, 40
Tube current, 45
File date and time,09/ago/2021 13:19
Unit cell,
h k l, 0 0 0
Scan axis,Gonio
Scan range,3.9968,40
Scan step size,0.0262606
No. of points, 1371
Scan type,CONTINUOUS
Time per step,197.115
[Scan points]
Angle,Intensity
4.03,31767.3
4.16,27912.7
4.29,36767.4
4.42,82691.6
4.55,125461.8
4.68,33808.0
4.81,25065.3
4.94,22611.1
5.07,21503.0
5.2,19084.2
5.33,17890.6
5.46,17275.1
5.59,16806.3
5.72,16585.1
5.85,15954.4
5.98,15969.8
6.11,17036.6
6.24,22643.6
6.37,52521.1
6.5,29310.6
6.63,22125.6
6.76,20569.0
6.89,19741.5
7.02,19168.5
7.15,18601.6
7.28,17794.7
7.41,17378.4
7.54,17495.3
7.67,19802.8
7.8,40184.4
7.93,29634.5
8.06,16656.3
8.19,15476.5
8.32,14949.2
8.45,14787.8
8.58,14314.3
8.71,14214.7
8.84,14484.3
8.97,18491.0
9.1,31690.5
9.23,14927.8
9.36,13451.0
9.49,13060.8
9.62,12798.6
9.75,12561.4
9.88,12345.8
10.01,12358.3
10.14,14078.3
10.27,12361.3
10.4,11620.0
10.53,11390.6
10.66,11117.9
10.79,11202.2
10.92,11269.2
11.05,14211.7
11.18,19027.9
11.31,10718.1
11.44,10338.2
11.57,10089.2
11.7,9760.5
11.83,9698.3
11.96,9576.1
12.09,9362.7
12.22,9348.2
12.35,9368.3
12.48,9271.6
12.61,9187.2
12.74,9072.3
12.87,9007.7
13,8819.1
13.13,8758.7
13.26,8815.2
13.39,8921.8
13.52,9569.8
13.65,17695.6
13.78,9862.8
13.91,8673.5
14.04,8357.2
14.17,8288.1
14.3,8242.3
14.43,8299.1
14.56,8195.3
14.69,8000.8
14.82,7890.0
14.95,7953.7
15.08,7940.1
15.21,7869.1
15.34,7643.9
15.47,7888.4
15.6,7773.2
15.73,8066.1
15.86,8196.8
15.99,7805.4
16.12,7679.8
16.25,7775.7
16.38,7729.9
16.51,7848.0
16.64,7610.8
16.77,7667.6
16.9,7756.2
17.03,7738.4
17.16,7735.5
17.29,7673.4
17.42,7801.6
17.55,7631.7
17.68,7584.4
17.81,7599.3
17.94,7662.1
18.07,7750.7
18.2,7943.9
18.33,8128.6
18.46,7851.5
18.59,7830.0
18.72,8097.0
18.85,9424.9
18.98,8142.9
19.11,7841.4
19.24,7816.3
19.37,7993.5
19.5,7969.3
19.63,8078.5
19.76,8009.1
19.89,8475.9
20.02,8303.4
20.15,8249.8
20.28,8112.0
20.41,9066.7
20.54,8763.3
20.67,8276.7
20.8,8381.9
20.93,9877.3
21.06,9240.3
21.19,8267.6
21.32,8210.2
21.45,8968.4
21.58,8257.5
21.71,8113.9
21.84,8268.5
21.97,7933.6
22.1,8009.9
22.23,8085.0
22.36,8444.8
22.49,8906.6
22.62,8034.6
22.75,7881.6
22.88,8029.9
23.01,8119.2
23.14,7874.6
23.27,8135.2
23.4,9277.8
23.53,7892.6
23.66,7670.4
23.79,7709.3
23.92,7763.3
24.05,7486.8
24.18,7438.9
24.31,7542.6
24.44,7422.4
24.57,7408.5
24.7,7821.1
24.83,7606.4
24.96,7253.1
25.09,7465.5
25.22,7547.3
25.35,7324.8
25.48,7267.5
25.61,7247.7
25.74,7136.3
25.87,7250.5
26,7165.9
26.13,7232.8
26.26,7189.8
26.39,7488.9
26.52,7289.4
26.65,7232.0
26.78,7767.4
26.91,7387.8
27.04,7169.9
27.17,7679.4
27.3,7214.5
27.43,6985.6
27.56,7102.1
27.69,6903.6
27.82,7008.8
27.95,7693.4
28.08,7163.6
28.21,6834.6
28.34,6940.6
28.47,6803.5
28.6,6633.7
28.73,6602.6
28.86,6560.4
28.99,6582.4
29.12,6792.0
29.25,6577.8
29.38,6626.2
29.51,7313.2
29.64,6550.5
29.77,6442.8
29.9,6211.2
30.03,6197.1
30.16,6309.9
30.29,6226.1
30.42,6078.2
30.55,6280.6
30.68,6118.8
30.81,5991.0
30.94,6000.2
31.07,5844.7
31.2,5931.4
31.33,5885.7
31.46,5776.1
31.59,5741.2
31.72,5822.1
31.85,5469.9
31.98,5833.8
32.11,5488.6
32.24,5539.0
32.37,5464.2
32.5,5581.7
32.63,5677.3
32.76,5460.0
32.89,5415.9
33.02,5425.5
33.15,5222.9
33.28,5155.5
33.41,5137.0
33.54,5239.4
33.67,5221.0
33.8,5114.4
33.93,5082.5
34.06,5136.2
34.19,4870.6
34.32,4808.4
34.45,4845.7
34.58,4757.2
34.71,4782.7
34.84,4960.8
34.97,4812.3
35.1,4749.1
35.23,4717.0
35.36,4704.9
35.49,4795.7
35.62,4774.6
35.75,4565.7
35.88,4671.2
36.01,4548.5
36.14,4492.5
36.27,4466.0
36.4,4452.2
36.53,4519.9
36.66,4381.4
36.79,4338.2
36.92,4329.9
37.05,4357.9
37.18,4269.5
37.31,4299.3
37.44,4367.5
37.57,4283.7
37.7,4343.3
37.83,4138.1
37.96,4155.1
38.09,4071.2
38.22,4050.3
38.35,4079.0
38.48,4231.3
38.61,4242.4
38.74,4164.9
38.87,4058.9
39,4031.1
39.13,4062.7
39.26,4131.9
39.39,4061.1
39.52,4263.3
39.65,4198.8
39.78,4140.5
39.91,4009.4
39.962,4093.4

File: #8138_4_40_R12_1_8_M15_P0026_T200 _1.csv
[Measurement conditions]
Sample identification,
Comment - 1,"Metodo 1"
Comment - 2,"Configuration=Stage flat sample, Owner=User-1, Creation date=18/05/2016 11:51:59 a.m."
Comment - 3,"Goniometer=Theta/Theta; Minimum step size 2Theta:0.0001; Minimum step size Omega:0.0001"
Comment - 4,"Sample stage=Stage for flat samples/holders"
Comment - 5,"Diffractometer system=EMPYREAN"
Comment - 6,"Measurement program=C:\PANalytical\Data Collector\Programs\4_40_R12_1_8_M15_P0026_T200 .xrdmp, Identifier={16617745-81AC-40A4-8377-9136E38050CA}"
Anode material,Cu
K-Alpha1 wavelength,1.5406
K-Alpha2 wavelength,1.54443
Ratio K-Alpha2/K-Alpha1,0.500
Divergence slit,Fixed,0.76mm
Monochromator used,NO
Generator voltage, 40
Tube current, 45
File date and time,09/ago/2021 13:41
Unit cell,
h k l, 0 0 0
Scan axis,Gonio
Scan range,3.9968,40
Scan step size,0.0262606
No. of points, 1371
Scan type,CONTINUOUS
Time per step,197.115
[Scan points]
Angle,Intensity
4.03,30390.6
4.16,25938.0
4.29,31551.3
4.42,60965.3
4.55,165661.3
4.68,36658.1
4.81,23360.4
4.94,20115.9
5.07,18527.7
5.2,17442.9
5.33,17151.4
5.46,16477.4
5.59,16233.7
5.72,15901.5
5.85,15475.2
5.98,15661.3
6.11,15962.3
6.24,18804.4
6.37,35208.0
6.5,39800.9
6.63,18399.9
6.76,16223.1
6.89,15754.4
7.02,15117.7
7.15,14847.4
7.28,14377.4
7.41,14286.1
7.54,14460.2
7.67,15893.3
7.8,26112.1
7.93,47144.8
8.06,16144.2
8.19,13819.1
8.32,12970.0
8.45,12532.6
8.58,12301.0
8.71,12153.5
8.84,12455.4
8.97,13982.8
9.1,27329.5
9.23,14759.8
9.36,11724.8
9.49,11389.2
9.62,10988.8
9.75,11040.0
9.88,10825.5
10.01,10695.4
10.14,11133.3
10.27,11209.1
10.4,10083.4
10.53,9772.8
10.66,9706.8
10.79,9532.5
10.92,9615.2
11.05,10980.8
11.18,19810.1
11.31,10559.1
11.44,9432.2
11.57,9069.9
11.7,8847.9
11.83,8626.9
11.96,8623.9
12.09,8375.1
12.22,8549.9
12.35,8358.1
12.48,8206.6
12.61,8157.3
12.74,7998.1
12.87,7855.6
13,7892.9
13.13,7890.9
13.26,7769.9
13.39,7716.4
13.52,8214.1
13.65,11714.2
13.78,13060.3
13.91,8287.2
14.04,7831.5
14.17,7606.9
14.3,7604.0
14.43,7361.8
14.56,7454.6
14.69,7403.8
14.82,7358.5
14.95,7315.7
15.08,7250.5
15.21,7255.3
15.34,7053.1
15.47,7034.6
15.6,7124.8
15.73,7147.0
15.86,7694.6
15.99,7133.0
16.12,7223.0
16.25,7129.1
16.38,7054.6
16.51,7084.0
16.64,7045.7
16.77,7017.3
16.9,6990.0
17.03,6946.7
17.16,7353.6
17.29,7194.1
17.42,7067.2
17.55,7056.9
17.68,7145.1
17.81,6962.3
17.94,7048.0
18.07,7029.4
18.2,7241.8
18.33,7660.8
18.46,7186.0
18.59,7168.9
18.72,7266.5
18.85,8063.7
18.98,7956.8
19.11,7488.2
19.24,7205.6
19.37,7336.2
19.5,7360.7
19.63,7392.8
19.76,7504.5
19.89,7405.0
20.02,7809.1
20.15,7505.9
20.28,7644.3
20.41,7708.1
20.54,8901.0
20.67,7632.5
20.8,7548.4
20.93,7837.7
21.06,10206.2
21.19,7793.2
21.32,7665.6
21.45,7709.6
21.58,8320.5
21.71,7452.6
21.84,7379.0
21.97,7394.2
22.1,7398.0
22.23,7388.0
22.36,7516.8
22.49,8345.2
22.62,7739.9
22.75,7413.7
22.88,7455.7
23.01,7558.9
23.14,7284.0
23.27,7472.2
23.4,8413.2
23.53,7986.1
23.66,7211.2
23.79,7234.3
23.92,7258.4
24.05,6862.7
24.18,6997.5
24.31,7082.4
24.44,7001.3
24.57,7075.5
24.7,7184.5
24.83,7301.3
24.96,6982.9
25.09,7016.7
25.22,7395.9
25.35,7055.7
25.48,6897.6
25.61,7060.2
25.74,6861.8
25.87,6992.0
26,6916.0
26.13,6886.3
26.26,6830.7
26.39,7046.8
26.52,7006.4
26.65,6896.7
26.78,7087.7
26.91,7465.5
27.04,6849.2
27.17,6835.5
27.3,7653.3
27.43,6768.1
27.56,6746.9
27.69,6729.9
27.82,6469.5
27.95,6847.4
28.08,7469.6
28.21,6662.7
28.34,6497.7
28.47,6726.6
28.6,6381.7
28.73,6218.2
28.86,6236.8
28.99,6210.6
29.12,6263.9
29.25,6341.1
29.38,6269.1
29.51,6848.9
29.64,6848.0
29.77,6204.9
29.9,6107.6
30.03,6068.0
30.16,6033.5
30.29,5982.9
30.42,5984.4
30.55,5942.7
30.68,6185.8
30.81,5915.8
30.94,5716.0
31.07,5829.7
31.2,5630.6
31.33,5716.1
31.46,5656.9
31.59,5508.7
31.72,5416.6
31.85,5424.9
31.98,5381.6
32.11,5449.4
32.24,5389.0
32.37,5308.3
32.5,5240.1
32.63,5246.3
32.76,5582.4
32.89,5159.6
33.02,5158.1
33.15,5152.3
33.28,5092.6
33.41,4989.0
33.54,5009.8
33.67,5013.0
33.8,4973.0
33.93,4998.1
34.06,5254.5
34.19,4954.2
34.32,4724.8
34.45,4693.5
34.58,4586.7
34.71,4540.8
34.84,4501.4
34.97,4725.2
35.1,4711.1
35.23,4546.4
35.36,4572.5
35.49,4519.5
35.62,4687.9
35.75,4583.1
35.88,4464.4
36.01,4449.0
36.14,4306.8
36.27,4375.9
36.4,4422.4
36.53,4251.6
36.66,4191.7
36.79,4137.3
36.92,4079.2
37.05,4338.1
37.18,4064.9
37.31,4144.5
37.44,4137.1
37.57,4200.3
37.7,4071.0
37.83,4141.2
37.96,3967.4
38.09,4028.1
38.22,3874.0
38.35,3964.7
38.48,3954.6
38.61,4097.7
38.74,4041.6
38.87,3834.7
39,3872.0
39.13,3940.3
39.26,3945.4
39.39,3945.8
39.52,4009.9
39.65,3844.3
39.78,4010.6
39.91,3809.9
39.962,3943.2

File: #8139_4_40_R12_1_8_M15_P0026_T200 _1.csv
[Measurement conditions]
Sample identification,
Comment - 1,"Metodo 1"
Comment - 2,"Configuration=Stage flat sample, Owner=User-1, Creation date=18/05/2016 11:51:59 a.m."
Comment - 3,"Goniometer=Theta/Theta; Minimum step size 2Theta:0.0001; Minimum step size Omega:0.0001"
Comment - 4,"Sample stage=Stage for flat samples/holders"
Comment - 5,"Diffractometer system=EMPYREAN"
Comment - 6,"Measurement program=C:\PANalytical\Data Collector\Programs\4_40_R12_1_8_M15_P0026_T200 .xrdmp, Identifier={16617745-81AC-40A4-8377-9136E38050CA}"
Anode material,Cu
K-Alpha1 wavelength,1.5406
K-Alpha2 wavelength,1.54443
Ratio K-Alpha2/K-Alpha1,0.500
Divergence slit,Fixed,0.76mm
Monochromator used,NO
Generator voltage, 40
Tube current, 45
File date and time,09/ago/2021 14:03
Unit cell,
h k l, 0 0 0
Scan axis,Gonio
Scan range,3.9968,40
Scan step size,0.0262606
No. of points, 1371
Scan type,CONTINUOUS
Time per step,197.115
[Scan points]
Angle,Intensity
4.03,31959.9
4.16,25598.1
4.29,24851.1
4.42,30130.1
4.55,56473.6
4.68,63358.8
4.81,28322.6
4.94,23768.5
5.07,22081.0
5.2,21222.2
5.33,20379.6
5.46,19606.1
5.59,19115.8
5.72,18494.6
5.85,18288.1
5.98,17892.0
6.11,17680.9
6.24,18292.4
6.37,22500.9
6.5,33256.7
6.63,22837.6
6.76,18823.3
6.89,18417.1
7.02,18162.2
7.15,17767.9
7.28,17468.7
7.41,16994.3
7.54,16707.8
7.67,16278.5
7.8,18863.1
7.93,27081.8
8.06,19810.3
8.19,15278.6
8.32,14492.6
8.45,13893.5
8.58,13742.1
8.71,13423.0
8.84,13245.6
8.97,13550.6
9.1,18182.9
9.23,18647.4
9.36,12781.9
9.49,11854.8
9.62,11584.5
9.75,11444.0
9.88,11187.1
10.01,10975.3
10.14,11197.8
10.27,11641.7
10.4,10725.7
10.53,10358.7
10.66,10219.6
10.79,10071.1
10.92,9833.1
11.05,10106.5
11.18,12705.6
11.31,11406.1
11.44,9321.4
11.57,9008.2
11.7,9042.0
11.83,8964.9
11.96,8782.2
12.09,8721.4
12.22,8731.7
12.35,8606.7
12.48,8434.6
12.61,8325.3
12.74,8371.5
12.87,8307.2
13,8294.3
13.13,8068.8
13.26,8175.6
13.39,8061.4
13.52,8105.4
13.65,9662.6
13.78,11298.7
13.91,8352.7
14.04,7942.7
14.17,7736.2
14.3,7863.7
14.43,7745.5
14.56,7575.4
14.69,7645.4
14.82,7579.7
14.95,7564.6
15.08,7423.0
15.21,7715.3
15.34,7436.7
15.47,7420.6
15.6,7447.7
15.73,7411.6
15.86,7602.2
15.99,7513.6
16.12,7389.0
16.25,7240.9
16.38,7305.1
16.51,7452.0
16.64,7356.8
16.77,7310.7
16.9,7186.3
17.03,7415.6
17.16,7193.4
17.29,7223.0
17.42,7272.1
17.55,7341.9
17.68,7247.5
17.81,7237.3
17.94,7353.5
18.07,7276.6
18.2,7239.7
18.33,7375.6
18.46,7178.5
18.59,7218.3
18.72,7263.8
18.85,7851.8
18.98,7802.2
19.11,7159.4
19.24,7331.6
19.37,7233.5
19.5,7411.2
19.63,7114.6
19.76,7158.2
19.89,7617.8
20.02,7532.1
20.15,7381.8
20.28,7482.8
20.41,7601.6
20.54,7966.7
20.67,7507.0
20.8,7347.0
20.93,7614.4
21.06,8397.2
21.19,7556.4
21.32,7211.8
21.45,7366.3
21.58,7556.1
21.71,7111.0
21.84,7140.2
21.97,7261.7
22.1,7116.1
22.23,7019.5
22.36,7100.6
22.49,7654.6
22.62,7324.2
22.75,7029.0
22.88,7088.4
23.01,7181.3
23.14,6904.7
23.27,7045.8
23.4,7667.5
23.53,7515.8
23.66,6954.9
23.79,6746.7
23.92,6815.6
24.05,6808.1
24.18,6920.1
24.31,6894.0
24.44,6687.6
24.57,6842.6
24.7,6882.4
24.83,6907.2
24.96,6796.6
25.09,6857.3
25.22,6956.4
25.35,6732.3
25.48,6559.5
25.61,6820.8
25.74,6706.9
25.87,6713.4
26,6765.7
26.13,6737.6
26.26,6715.1
26.39,6870.6
26.52,6785.0
26.65,6704.0
26.78,6817.6
26.91,6856.8
27.04,6813.8
27.17,6704.2
27.3,6847.6
27.43,6643.3
27.56,6647.4
27.69,6714.1
27.82,6759.2
27.95,6835.2
28.08,6934.6
28.21,6650.2
28.34,6467.2
28.47,6650.6
28.6,6426.6
28.73,6428.0
28.86,6412.3
28.99,6436.5
29.12,6497.4
29.25,6466.5
29.38,6286.2
29.51,6651.4
29.64,6496.8
29.77,6269.2
29.9,6246.9
30.03,6215.2
30.16,6048.0
30.29,6074.1
30.42,6135.1
30.55,6128.3
30.68,6065.2
30.81,6000.4
30.94,5828.7
31.07,5898.0
31.2,5834.2
31.33,5934.0
31.46,5712.8
31.59,5670.7
31.72,5653.1
31.85,5731.2
31.98,5768.0
32.11,5568.1
32.24,5443.3
32.37,5589.5
32.5,5593.5
32.63,5647.5
32.76,5628.6
32.89,5386.0
33.02,5446.0
33.15,5247.1
33.28,5138.0
33.41,5319.7
33.54,5216.7
33.67,5269.6
33.8,5219.6
33.93,5193.9
34.06,5179.5
34.19,5031.1
34.32,5008.7
34.45,4918.4
34.58,4857.6
34.71,4990.9
34.84,4896.4
34.97,4914.0
35.1,4813.9
35.23,4906.9
35.36,4777.3
35.49,4753.3
35.62,4795.0
35.75,4728.7
35.88,4782.2
36.01,4665.9
36.14,4620.9
36.27,4629.2
36.4,4610.2
36.53,4570.2
36.66,4657.6
36.79,4490.1
36.92,4429.8
37.05,4444.5
37.18,4512.1
37.31,4531.4
37.44,4517.0
37.57,4340.3
37.7,4479.1
37.83,4467.4
37.96,4288.9
38.09,4338.9
38.22,4322.9
38.35,4339.0
38.48,4235.4
38.61,4345.6
38.74,4278.7
38.87,4350.9
39,4267.0
39.13,4270.2
39.26,4185.2
39.39,4247.5
39.52,4361.6
39.65,4209.1
39.78,4312.3
39.91,4117.4
39.962,4206.2

File: #8201_Pyn-MOF_4_40_R12_1_8_M15_P0026_T200 _1.csv
[Measurement conditions]
Sample identification,
Comment - 1,"Metodo 1"
Comment - 2,"Configuration=Stage flat sample, Owner=User-1, Creation date=18/05/2016 11:51:59 a.m."
Comment - 3,"Goniometer=Theta/Theta; Minimum step size 2Theta:0.0001; Minimum step size Omega:0.0001"
Comment - 4,"Sample stage=Stage for flat samples/holders"
Comment - 5,"Diffractometer system=EMPYREAN"
Comment - 6,"Measurement program=C:\PANalytical\Data Collector\Programs\4_40_R12_1_8_M15_P0026_T200 .xrdmp, Identifier={16617745-81AC-40A4-8377-9136E38050CA}"
Anode material,Cu
K-Alpha1 wavelength,1.5406
K-Alpha2 wavelength,1.54443
Ratio K-Alpha2/K-Alpha1,0.500
Divergence slit,Fixed,0.76mm
Monochromator used,NO
Generator voltage, 40
Tube current, 45
File date and time,09/ago/2021 14:25
Unit cell,
h k l, 0 0 0
Scan axis,Gonio
Scan range,3.9968,40
Scan step size,0.0262606
No. of points, 1371
Scan type,CONTINUOUS
Time per step,197.115
[Scan points]
Angle,Intensity
4.03,29825.9
4.16,22797.0
4.29,19670.1
4.42,17842.0
4.55,16544.6
4.68,15797.4
4.81,15190.9
4.94,14897.0
5.07,14343.8
5.2,13944.7
5.33,13767.8
5.46,13536.7
5.59,13276.6
5.72,13067.5
5.85,12962.0
5.98,12655.4
6.11,12509.5
6.24,12118.6
6.37,11831.5
6.5,11652.2
6.63,11717.5
6.76,11503.7
6.89,11425.0
7.02,11013.3
7.15,11110.4
7.28,11089.7
7.41,10839.4
7.54,10721.1
7.67,10679.4
7.8,10503.7
7.93,10526.4
8.06,10992.2
8.19,13338.3
8.32,14514.4
8.45,10953.1
8.58,11210.8
8.71,13599.5
8.84,24961.0
8.97,47156.6
9.1,21294.8
9.23,13305.0
9.36,13259.9
9.49,13569.0
9.62,10972.6
9.75,9755.2
9.88,9723.0
10.01,10010.7
10.14,12023.1
10.27,12746.9
10.4,9674.7
10.53,8901.8
10.66,8556.3
10.79,8454.3
10.92,8677.4
11.05,8676.1
11.18,9943.7
11.31,13565.3
11.44,9613.7
11.57,8723.3
11.7,8616.7
11.83,9091.2
11.96,10849.0
12.09,17420.4
12.22,18890.8
12.35,25963.6
12.48,40841.2
12.61,82380.7
12.74,36697.3
12.87,13839.9
13,9881.9
13.13,8973.2
13.26,9660.3
13.39,10807.6
13.52,8197.4
13.65,7635.1
13.78,7444.2
13.91,7266.6
14.04,7365.1
14.17,7249.4
14.3,7225.7
14.43,7216.5
14.56,8037.3
14.69,11526.3
14.82,11691.5
14.95,7753.9
15.08,7096.0
15.21,6654.6
15.34,6872.3
15.47,7400.8
15.6,9637.1
15.73,8186.9
15.86,6881.6
15.99,6677.0
16.12,6581.1
16.25,6532.0
16.38,6568.6
16.51,6890.7
16.64,6779.8
16.77,6448.2
16.9,6533.7
17.03,6581.6
17.16,6873.9
17.29,6995.3
17.42,6618.9
17.55,6223.8
17.68,6261.6
17.81,6480.6
17.94,7835.2
18.07,7950.8
18.2,6373.6
18.33,6153.7
18.46,5992.8
18.59,6074.1
18.72,5967.8
18.85,6139.0
18.98,6292.8
19.11,6439.3
19.24,6099.6
19.37,5930.2
19.5,6067.0
19.63,5965.6
19.76,5863.8
19.89,5863.1
20.02,6016.8
20.15,6224.2
20.28,6158.6
20.41,6139.0
20.54,6022.5
20.67,6100.1
20.8,7377.3
20.93,6159.0
21.06,6054.8
21.19,6610.6
21.32,8164.3
21.45,8365.8
21.58,6812.4
21.71,7193.2
21.84,7888.8
21.97,7427.0
22.1,6272.4
22.23,6256.8
22.36,6208.4
22.49,6278.9
22.62,6479.6
22.75,6746.7
22.88,6708.6
23.01,6424.6
23.14,6606.7
23.27,6500.7
23.4,6590.8
23.53,6997.8
23.66,7186.4
23.79,7976.2
23.92,9374.3
24.05,10338.0
24.18,9073.1
24.31,8044.0
24.44,9136.8
24.57,11193.9
24.7,13095.6
24.83,12945.7
24.96,13353.0
25.09,18067.1
25.22,27473.5
25.35,24648.4
25.48,19344.9
25.61,10443.0
25.74,8463.9
25.87,8837.1
26,8471.1
26.13,7929.0
26.26,8359.9
26.39,11021.9
26.52,11888.3
26.65,8986.5
26.78,9117.5
26.91,8968.1
27.04,8838.5
27.17,9871.9
27.3,12508.1
27.43,25857.6
27.56,61878.8
27.69,56141.0
27.82,23434.0
27.95,14797.7
28.08,11097.6
28.21,10074.2
28.34,8345.2
28.47,7733.0
28.6,7251.5
28.73,8038.5
28.86,10862.8
28.99,12345.2
29.12,8825.0
29.25,7173.8
29.38,6496.6
29.51,6321.1
29.64,6562.8
29.77,6754.1
29.9,6277.7
30.03,6045.4
30.16,6015.0
30.29,5885.4
30.42,5883.2
30.55,5718.7
30.68,5474.1
30.81,5354.6
30.94,5339.9
31.07,5369.4
31.2,5362.8
31.33,5541.6
31.46,5760.8
31.59,5764.7
31.72,5288.9
31.85,5170.5
31.98,5041.0
32.11,4916.8
32.24,4728.1
32.37,4713.6
32.5,4604.8
32.63,4704.0
32.76,4647.4
32.89,4730.2
33.02,4735.5
33.15,4677.8
33.28,4524.9
33.41,4690.8
33.54,4785.1
33.67,4921.5
33.8,4765.3
33.93,4665.2
34.06,4771.2
34.19,5499.4
34.32,6603.8
34.45,5236.3
34.58,4445.9
34.71,4408.2
34.84,4544.0
34.97,5086.2
35.1,4690.8
35.23,4332.5
35.36,4092.3
35.49,3944.1
35.62,3918.0
35.75,3978.0
35.88,3883.3
36.01,3804.7
36.14,3788.4
36.27,3715.3
36.4,3792.2
36.53,3681.8
36.66,3712.3
36.79,3600.9
36.92,3543.8
37.05,3813.6
37.18,3657.2
37.31,3692.1
37.44,3721.7
37.57,3670.4
37.7,3738.7
37.83,3854.7
37.96,3760.0
38.09,3749.8
38.22,3616.3
38.35,3564.0
38.48,3644.0
38.61,3736.5
38.74,3673.3
38.87,3951.3
39,4130.4
39.13,3839.3
39.26,3548.8
39.39,3450.8
39.52,3484.4
39.65,3550.0
39.78,3893.4
39.91,3885.0
39.962,3709.4