Folder: labo/2021/XRD

File: 12021.ASC
  3.000      100
  3.100      121
  3.200      132
  3.300      119
  3.400      125
  3.500      119
  3.600      106
  3.700      128
  3.800      135
  3.900      108
  4.000      121
  4.100      151
  4.200      151
  4.300      188
  4.400      164
  4.500      182
  4.600      190
  4.700      216
  4.800      228
  4.900      246
  5.000      237
  5.100      216
  5.200      210
  5.300      219
  5.400      190
  5.500      164
  5.600      151
  5.700      151
  5.800      166
  5.900      137
  6.000      174
  6.100      151
  6.200      169
  6.300      164
  6.400      159
  6.500      169
  6.600      182
  6.700      164
  6.800      161
  6.900      166
  7.000      207
  7.100      210
  7.200      219
  7.300      196
  7.400      164
  7.500      159
  7.600      146
  7.700      164
  7.800      166
  7.900      146
  8.000      154
  8.100      159
  8.200      169
  8.300      146
  8.400      159
  8.500      144
  8.600      164
  8.700      142
  8.800      156
  8.900      169
  9.000      159
  9.100      137
  9.200      169
  9.300      182
  9.400      159
  9.500      161
  9.600      174
  9.700      174
  9.800      188
  9.900      182
 10.000      196
 10.100      154
 10.200      172
 10.300      156
 10.400      185
 10.500      159
 10.600      210
 10.700      199
 10.800      202
 10.900      188
 11.000      185
 11.100      199
 11.200      207
 11.300      193
 11.400      219
 11.500      225
 11.600      216
 11.700      222
 11.800      225
 11.900      213
 12.000      225
 12.100      210
 12.200      237
 12.300      219
 12.400      250
 12.500      269
 12.600      256
 12.700      256
 12.800      256
 12.900      253
 13.000      259
 13.100      276
 13.200      262
 13.300      246
 13.400      240
 13.500      246
 13.600      246
 13.700      262
 13.800      289
 13.900      237
 14.000      228
 14.100      246
 14.200      228
 14.300      228
 14.400      225
 14.500      234
 14.600      222
 14.700      210
 14.800      237
 14.900      225
 15.000      216
 15.100      213
 15.200      188
 15.300      199
 15.400      190
 15.500      182
 15.600      185
 15.700      193
 15.800      204
 15.900      185
 16.000      161
 16.100      156
 16.200      182
 16.300      193
 16.400      164
 16.500      146
 16.600      135
 16.700      174
 16.800      151
 16.900      149
 17.000      188
 17.100      130
 17.200      142
 17.300      135
 17.400      144
 17.500      156
 17.600      146
 17.700      137
 17.800      172
 17.900      130
 18.000      132
 18.100      144
 18.200      121
 18.300      130
 18.400      119
 18.500      130
 18.600      106
 18.700      130
 18.800       94
 18.900      112
 19.000      125
 19.100      112
 19.200      121
 19.300      100
 19.400      125
 19.500       85
 19.600       96
 19.700      121
 19.800      110
 19.900       94
 20.000      106
 20.100       94
 20.200       92
 20.300      108
 20.400       94
 20.500       96
 20.600       71
 20.700      100
 20.800       85
 20.900       85
 21.000       92
 21.100      104
 21.200       79
 21.300       88
 21.400       88
 21.500       90
 21.600       72
 21.700       85
 21.800       94
 21.900      100
 22.000       94
 22.100       92
 22.200       62
 22.300       76
 22.400       83
 22.500       88
 22.600       77
 22.700       71
 22.800       76
 22.900       72
 23.000       66
 23.100       77
 23.200       83
 23.300       83
 23.400       67
 23.500       86
 23.600       79
 23.700       77
 23.800       67
 23.900       67
 24.000       71
 24.100       72
 24.200       88
 24.300       71
 24.400       76
 24.500       59
 24.600       90
 24.700       76
 24.800       83
 24.900       86
 25.000       55
 25.100       67
 25.200       66
 25.300       71
 25.400       50
 25.500       66
 25.600       67
 25.700       76
 25.800       71
 25.900       66
 26.000       76
 26.100       72
 26.200       62
 26.300       72
 26.400       72
 26.500       74
 26.600       86
 26.700       83
 26.800       67
 26.900       67
 27.000       85
 27.100       79
 27.200       67
 27.300       83
 27.400       74
 27.500       79
 27.600       85
 27.700       77
 27.800       72
 27.900       77
 28.000       88
 28.100       94
 28.200       77
 28.300       76
 28.400       76
 28.500       85
 28.600       69
 28.700       86
 28.800       71
 28.900       85
 29.000       76
 29.100       72
 29.200       67
 29.300       64
 29.400       77
 29.500       67
 29.600       85
 29.700       86
 29.800       77
 29.900       67
 30.000       69

File: 22021.ASC
  3.000      149
  3.100      130
  3.200      130
  3.300      154
  3.400      149
  3.500      130
  3.600      159
  3.700      130
  3.800      142
  3.900      154
  4.000      188
  4.100      139
  4.200      172
  4.300      169
  4.400      182
  4.500      174
  4.600      149
  4.700      164
  4.800      174
  4.900      149
  5.000      135
  5.100      142
  5.200      125
  5.300      128
  5.400      137
  5.500      135
  5.600      119
  5.700      130
  5.800      128
  5.900      142
  6.000      130
  6.100      130
  6.200      135
  6.300      128
  6.400      123
  6.500      114
  6.600      128
  6.700      108
  6.800      110
  6.900      137
  7.000      121
  7.100      123
  7.200      104
  7.300      114
  7.400       96
  7.500      114
  7.600      112
  7.700      121
  7.800      100
  7.900      104
  8.000      123
  8.100       90
  8.200      100
  8.300       96
  8.400       88
  8.500      102
  8.600       94
  8.700       94
  8.800      110
  8.900       85
  9.000       85
  9.100       77
  9.200       77
  9.300       88
  9.400       86
  9.500       92
  9.600       79
  9.700       83
  9.800       81
  9.900       62
 10.000       83
 10.100       67
 10.200       76
 10.300       53
 10.400       59
 10.500       53
 10.600       79
 10.700       59
 10.800       55
 10.900       67
 11.000       67
 11.100       55
 11.200       48
 11.300       59
 11.400       53
 11.500       56
 11.600       49
 11.700       53
 11.800       62
 11.900       58
 12.000       48
 12.100       62
 12.200       46
 12.300       46
 12.400       49
 12.500       48
 12.600       48
 12.700       53
 12.800       53
 12.900       32
 13.000       50
 13.100       37
 13.200       48
 13.300       44
 13.400       38
 13.500       44
 13.600       41
 13.700       42
 13.800       62
 13.900       48
 14.000       38
 14.100       40
 14.200       48
 14.300       46
 14.400       38
 14.500       38
 14.600       42
 14.700       49
 14.800       41
 14.900       35
 15.000       40
 15.100       59
 15.200       41
 15.300       40
 15.400       38
 15.500       32
 15.600       28
 15.700       32
 15.800       44
 15.900       44
 16.000       35
 16.100       49
 16.200       38
 16.300       35
 16.400       26
 16.500       40
 16.600       36
 16.700       28
 16.800       38
 16.900       46
 17.000       31
 17.100       53
 17.200       38
 17.300       40
 17.400       35
 17.500       44
 17.600       42
 17.700       36
 17.800       26
 17.900       48
 18.000       34
 18.100       42
 18.200       32
 18.300       44
 18.400       41
 18.500       32
 18.600       36
 18.700       46
 18.800       28
 18.900       40
 19.000       45
 19.100       32
 19.200       36
 19.300       37
 19.400       44
 19.500       41
 19.600       38
 19.700       45
 19.800       50
 19.900       37
 20.000       46
 20.100       46
 20.200       50
 20.300       38
 20.400       46
 20.500       37
 20.600       40
 20.700       48
 20.800       37
 20.900       50
 21.000       50
 21.100       35
 21.200       44
 21.300       56
 21.400       42
 21.500       38
 21.600       50
 21.700       48
 21.800       48
 21.900       50
 22.000       49
 22.100       48
 22.200       59
 22.300       38
 22.400       29
 22.500       61
 22.600       59
 22.700       38
 22.800       36
 22.900       40
 23.000       48
 23.100       48
 23.200       56
 23.300       53
 23.400       55
 23.500       50
 23.600       67
 23.700       42
 23.800       41
 23.900       44
 24.000       53
 24.100       44
 24.200       48
 24.300       49
 24.400       44
 24.500       56
 24.600       62
 24.700       50
 24.800       52
 24.900       62
 25.000       67
 25.100       71
 25.200       48
 25.300       55
 25.400       56
 25.500       62
 25.600       50
 25.700       69
 25.800       59
 25.900       56
 26.000       56
 26.100       46
 26.200       52
 26.300       52
 26.400       58
 26.500       53
 26.600       58
 26.700       52
 26.800       56
 26.900       77
 27.000       50
 27.100       56
 27.200       62
 27.300       66
 27.400       56
 27.500       76
 27.600       67
 27.700       48
 27.800       69
 27.900       71
 28.000       62
 28.100       77
 28.200       66
 28.300       56
 28.400       53
 28.500       59
 28.600       56
 28.700       69
 28.800       66
 28.900       56
 29.000       67
 29.100       71
 29.200       62
 29.300       48
 29.400       52
 29.500       59
 29.600       59
 29.700       67
 29.800       72
 29.900       61
 30.000       48

File: 32021.ASC
  3.000      164
  3.100      164
  3.200      177
  3.300      193
  3.400      182
  3.500      185
  3.600      204
  3.700      199
  3.800      228
  3.900      276
  4.000      289
  4.100      299
  4.200      396
  4.300      520
  4.400      645
  4.500      847
  4.600     1274
  4.700     1136
  4.800      458
  4.900      350
  5.000      266
  5.100      282
  5.200      246
  5.300      253
  5.400      246
  5.500      219
  5.600      222
  5.700      231
  5.800      253
  5.900      228
  6.000      225
  6.100      222
  6.200      296
  6.300      339
  6.400      408
  6.500      524
  6.600      416
  6.700      256
  6.800      276
  6.900      256
  7.000      231
  7.100      237
  7.200      196
  7.300      222
  7.400      259
  7.500      240
  7.600      240
  7.700      237
  7.800      279
  7.900      369
  8.000      376
  8.100      234
  8.200      207
  8.300      166
  8.400      144
  8.500      159
  8.600      172
  8.700      144
  8.800      146
  8.900      169
  9.000      161
  9.100      204
  9.200      276
  9.300      202
  9.400      132
  9.500      123
  9.600      128
  9.700      130
  9.800      137
  9.900      100
 10.000      125
 10.100      130
 10.200      132
 10.300      139
 10.400      130
 10.500       90
 10.600       98
 10.700      102
 10.800       90
 10.900      121
 11.000       98
 11.100      128
 11.200      159
 11.300      139
 11.400      108
 11.500       88
 11.600       96
 11.700       86
 11.800       98
 11.900      110
 12.000       88
 12.100       83
 12.200       86
 12.300       81
 12.400       90
 12.500       94
 12.600       79
 12.700       76
 12.800       98
 12.900       77
 13.000       86
 13.100       85
 13.200       79
 13.300       85
 13.400       76
 13.500       71
 13.600      108
 13.700       92
 13.800      121
 13.900       96
 14.000       88
 14.100       88
 14.200       74
 14.300       71
 14.400       71
 14.500       76
 14.600       94
 14.700       71
 14.800       62
 14.900       72
 15.000       59
 15.100       67
 15.200       64
 15.300       62
 15.400       64
 15.500       83
 15.600       67
 15.700       81
 15.800       86
 15.900       83
 16.000       66
 16.100       61
 16.200       71
 16.300       66
 16.400       77
 16.500       71
 16.600       61
 16.700       76
 16.800       62
 16.900       83
 17.000       61
 17.100       64
 17.200       71
 17.300       85
 17.400       62
 17.500       88
 17.600       74
 17.700       77
 17.800       71
 17.900       85
 18.000       94
 18.100       98
 18.200       92
 18.300       71
 18.400       85
 18.500       76
 18.600       67
 18.700       56
 18.800       77
 18.900       67
 19.000       85
 19.100       88
 19.200       74
 19.300       86
 19.400       76
 19.500       81
 19.600       67
 19.700       77
 19.800       85
 19.900       79
 20.000       79
 20.100       74
 20.200       85
 20.300      104
 20.400      104
 20.500       98
 20.600       94
 20.700       90
 20.800      100
 20.900       96
 21.000       92
 21.100      108
 21.200       72
 21.300       98
 21.400       71
 21.500       81
 21.600       96
 21.700       76
 21.800       85
 21.900       76
 22.000       92
 22.100       83
 22.200       77
 22.300       88
 22.400       64
 22.500       67
 22.600       92
 22.700       71
 22.800       77
 22.900       72
 23.000       66
 23.100      102
 23.200       76
 23.300       77
 23.400       77
 23.500       72
 23.600       77
 23.700       72
 23.800       77
 23.900       69
 24.000       79
 24.100       85
 24.200       86
 24.300       85
 24.400       52
 24.500       67
 24.600       81
 24.700       83
 24.800       85
 24.900       88
 25.000       71
 25.100       83
 25.200       85
 25.300       69
 25.400       71
 25.500       83
 25.600       92
 25.700       77
 25.800       92
 25.900       71
 26.000       94
 26.100       76
 26.200       77
 26.300       94
 26.400       81
 26.500       88
 26.600       85
 26.700       85
 26.800       83
 26.900       83
 27.000      100
 27.100       71
 27.200       85
 27.300       85
 27.400       94
 27.500       85
 27.600       90
 27.700       71
 27.800       94
 27.900       86
 28.000       88
 28.100       86
 28.200       96
 28.300       86
 28.400       77
 28.500       92
 28.600       96
 28.700       86
 28.800       92
 28.900       86
 29.000       85
 29.100       88
 29.200       77
 29.300      112
 29.400      100
 29.500       86
 29.600       90
 29.700       88
 29.800       88
 29.900       77
 30.000       90

File: 42021.ASC
  3.000       83
  3.100       81
  3.200       94
  3.300       94
  3.400       90
  3.500      100
  3.600       96
  3.700      123
  3.800      114
  3.900      106
  4.000      144
  4.100      137
  4.200      156
  4.300      172
  4.400      202
  4.500      210
  4.600      225
  4.700      240
  4.800      222
  4.900      243
  5.000      204
  5.100      188
  5.200      166
  5.300      219
  5.400      172
  5.500      180
  5.600      151
  5.700      137
  5.800      154
  5.900      137
  6.000      180
  6.100      132
  6.200      164
  6.300      159
  6.400      190
  6.500      210
  6.600      202
  6.700      204
  6.800      190
  6.900      169
  7.000      190
  7.100      188
  7.200      172
  7.300      154
  7.400      164
  7.500      174
  7.600      132
  7.700      151
  7.800      174
  7.900      154
  8.000      132
  8.100      139
  8.200      135
  8.300      135
  8.400      121
  8.500      114
  8.600      110
  8.700      114
  8.800      117
  8.900      130
  9.000      108
  9.100       90
  9.200       90
  9.300      104
  9.400      102
  9.500      100
  9.600       83
  9.700      100
  9.800       86
  9.900       64
 10.000      102
 10.100       72
 10.200       86
 10.300       74
 10.400       86
 10.500       71
 10.600       79
 10.700       77
 10.800       71
 10.900       67
 11.000       71
 11.100       66
 11.200       64
 11.300       72
 11.400       62
 11.500       66
 11.600       62
 11.700       56
 11.800       56
 11.900       59
 12.000       53
 12.100       52
 12.200       62
 12.300       53
 12.400       59
 12.500       69
 12.600       48
 12.700       59
 12.800       48
 12.900       49
 13.000       53
 13.100       61
 13.200       66
 13.300       71
 13.400       48
 13.500       62
 13.600       53
 13.700       61
 13.800       49
 13.900       59
 14.000       66
 14.100       36
 14.200       46
 14.300       55
 14.400       49
 14.500       53
 14.600       44
 14.700       45
 14.800       53
 14.900       50
 15.000       55
 15.100       42
 15.200       37
 15.300       40
 15.400       36
 15.500       44
 15.600       44
 15.700       42
 15.800       40
 15.900       50
 16.000       44
 16.100       37
 16.200       61
 16.300       41
 16.400       41
 16.500       48
 16.600       27
 16.700       48
 16.800       44
 16.900       41
 17.000       40
 17.100       48
 17.200       35
 17.300       46
 17.400       42
 17.500       49
 17.600       52
 17.700       44
 17.800       53
 17.900       46
 18.000       41
 18.100       53
 18.200       55
 18.300       64
 18.400       52
 18.500       44
 18.600       48
 18.700       44
 18.800       59
 18.900       52
 19.000       53
 19.100       56
 19.200       44
 19.300       50
 19.400       59
 19.500       56
 19.600       48
 19.700       52
 19.800       48
 19.900       46
 20.000       52
 20.100       66
 20.200       69
 20.300       48
 20.400       40
 20.500       53
 20.600       62
 20.700       61
 20.800       52
 20.900       48
 21.000       67
 21.100       59
 21.200       66
 21.300       56
 21.400       59
 21.500       53
 21.600       49
 21.700       62
 21.800       59
 21.900       56
 22.000       53
 22.100       56
 22.200       56
 22.300       53
 22.400       53
 22.500       44
 22.600       59
 22.700       52
 22.800       53
 22.900       46
 23.000       56
 23.100       50
 23.200       53
 23.300       55
 23.400       53
 23.500       62
 23.600       48
 23.700       67
 23.800       50
 23.900       48
 24.000       52
 24.100       66
 24.200       49
 24.300       52
 24.400       52
 24.500       48
 24.600       48
 24.700       53
 24.800       52
 24.900       59
 25.000       56
 25.100       44
 25.200       40
 25.300       58
 25.400       56
 25.500       50
 25.600       56
 25.700       53
 25.800       58
 25.900       53
 26.000       66
 26.100       48
 26.200       59
 26.300       61
 26.400       77
 26.500       56
 26.600       56
 26.700       55
 26.800       41
 26.900       56
 27.000       58
 27.100       59
 27.200       56
 27.300       66
 27.400       71
 27.500       50
 27.600       52
 27.700       59
 27.800       50
 27.900       72
 28.000       55
 28.100       53
 28.200       50
 28.300       52
 28.400       64
 28.500       59
 28.600       58
 28.700       67
 28.800       61
 28.900       64
 29.000       45
 29.100       53
 29.200       53
 29.300       53
 29.400       53
 29.500       48
 29.600       69
 29.700       66
 29.800       48
 29.900       50
 30.000       55

File: 52021.ASC
  3.000       37
  3.100       48
  3.200       40
  3.300       44
  3.400       40
  3.500       44
  3.600       38
  3.700       48
  3.800       42
  3.900       44
  4.000       50
  4.100       55
  4.200       56
  4.300       52
  4.400       85
  4.500       86
  4.600       77
  4.700       88
  4.800       96
  4.900       85
  5.000      100
  5.100       86
  5.200       79
  5.300       69
  5.400       62
  5.500       56
  5.600       48
  5.700       49
  5.800       67
  5.900       53
  6.000       71
  6.100       53
  6.200       71
  6.300       64
  6.400       72
  6.500       76
  6.600       76
  6.700       79
  6.800       72
  6.900       83
  7.000       64
  7.100       76
  7.200       74
  7.300       83
  7.400       76
  7.500       58
  7.600       76
  7.700       67
  7.800       66
  7.900       71
  8.000       71
  8.100       72
  8.200       62
  8.300       76
  8.400       46
  8.500       67
  8.600       59
  8.700       53
  8.800       66
  8.900       56
  9.000       53
  9.100       53
  9.200       53
  9.300       53
  9.400       48
  9.500       55
  9.600       52
  9.700       44
  9.800       52
  9.900       50
 10.000       66
 10.100       48
 10.200       53
 10.300       50
 10.400       53
 10.500       46
 10.600       52
 10.700       55
 10.800       34
 10.900       44
 11.000       46
 11.100       59
 11.200       53
 11.300       38
 11.400       42
 11.500       52
 11.600       40
 11.700       42
 11.800       45
 11.900       44
 12.000       45
 12.100       44
 12.200       38
 12.300       44
 12.400       50
 12.500       50
 12.600       49
 12.700       42
 12.800       44
 12.900       41
 13.000       32
 13.100       56
 13.200       34
 13.300       37
 13.400       36
 13.500       46
 13.600       44
 13.700       45
 13.800       44
 13.900       38
 14.000       34
 14.100       32
 14.200       31
 14.300       34
 14.400       29
 14.500       42
 14.600       24
 14.700       22
 14.800       26
 14.900       32
 15.000       28
 15.100       31
 15.200       38
 15.300       31
 15.400       37
 15.500       38
 15.600       29
 15.700       40
 15.800       32
 15.900       16
 16.000       28
 16.100       27
 16.200       29
 16.300       38
 16.400       35
 16.500       22
 16.600       29
 16.700       31
 16.800       35
 16.900       38
 17.000       34
 17.100       35
 17.200       32
 17.300       36
 17.400       28
 17.500       38
 17.600       24
 17.700       35
 17.800       30
 17.900       29
 18.000       36
 18.100       35
 18.200       32
 18.300       32
 18.400       35
 18.500       42
 18.600       32
 18.700       35
 18.800       40
 18.900       23
 19.000       40
 19.100       36
 19.200       35
 19.300       34
 19.400       38
 19.500       48
 19.600       44
 19.700       40
 19.800       32
 19.900       26
 20.000       37
 20.100       37
 20.200       48
 20.300       37
 20.400       40
 20.500       31
 20.600       48
 20.700       45
 20.800       38
 20.900       34
 21.000       40
 21.100       32
 21.200       40
 21.300       31
 21.400       41
 21.500       48
 21.600       59
 21.700       53
 21.800       45
 21.900       48
 22.000       44
 22.100       37
 22.200       40
 22.300       44
 22.400       49
 22.500       46
 22.600       50
 22.700       40
 22.800       36
 22.900       41
 23.000       38
 23.100       31
 23.200       45
 23.300       42
 23.400       48
 23.500       32
 23.600       48
 23.700       42
 23.800       49
 23.900       29
 24.000       32
 24.100       42
 24.200       45
 24.300       45
 24.400       45
 24.500       38
 24.600       32
 24.700       45
 24.800       38
 24.900       28
 25.000       46
 25.100       40
 25.200       56
 25.300       44
 25.400       49
 25.500       44
 25.600       26
 25.700       38
 25.800       29
 25.900       44
 26.000       50
 26.100       50
 26.200       27
 26.300       38
 26.400       41
 26.500       36
 26.600       42
 26.700       41
 26.800       44
 26.900       48
 27.000       52
 27.100       32
 27.200       44
 27.300       37
 27.400       38
 27.500       52
 27.600       29
 27.700       38
 27.800       49
 27.900       52
 28.000       40
 28.100       45
 28.200       40
 28.300       53
 28.400       36
 28.500       48
 28.600       50
 28.700       44
 28.800       48
 28.900       48
 29.000       38
 29.100       41
 29.200       46
 29.300       41
 29.400       41
 29.500       67
 29.600       44
 29.700       32
 29.800       31
 29.900       50
 30.000       50