Folder: labo/2021/xrd/baseline_correction

File: mof90.ASC
  4.010        0
  4.140    -4725
  4.270     3115
  4.400    40643
  4.530   123385
  4.660    10678
  4.790     1287
  4.920      127
  5.050      559
  5.180      -22
  5.310     -300
  5.440       46
  5.570      146
  5.700       19
  5.830      -36
  5.960     -118
  6.090      325
  6.220     4314
  6.350    27672
  6.480    17176
  6.610     5288
  6.740     3549
  6.870     2595
  7.000     2050
  7.130     1819
  7.260     1052
  7.390      800
  7.520      784
  7.650     2564
  7.780    17933
  7.910    21379
  8.040     1463
  8.170      175
  8.300      -63
  8.430       -5
  8.560      -50
  8.690       98
  8.820      231
  8.950     3147
  9.080    19745
  9.210     1880
  9.340      228
  9.470       17
  9.600      -81
  9.730       33
  9.860      -91
  9.990       94
 10.120     1721
 10.250      610
 10.380       21
 10.510     -152
 10.640     -137
 10.770      -53
 10.900      236
 11.030     2152
 11.160    10114
 11.290      605
 11.420       85
 11.550      -89
 11.680       48
 11.810       65
 11.940      -96
 12.070      -61
 12.200     -124
 12.330       85
 12.460       21
 12.590      136
 12.720        0
 12.850       -4
 12.980      -55
 13.110      -63
 13.240        5
 13.370      121
 13.500      576
 13.630     7408
 13.760     2326
 13.890       15
 14.020       57
 14.150      -49
 14.280     -115
 14.410      201
 14.540      123
 14.670     -248
 14.800        0
 14.930       -3
 15.060      139
 15.190       77
 15.320     -103
 15.450       -7
 15.580      -41
 15.710      121
 15.840      516
 15.970       24
 16.100       49
 16.230      106
 16.360       78
 16.490       63
 16.620      142
 16.750       58
 16.880        9
 17.010        3
 17.140       21
 17.270      -93
 17.400      113
 17.530        0
 17.660      -50
 17.790     -136
 17.920       24
 18.050       20
 18.180       59
 18.310      486
 18.440        8
 18.570      -59
 18.700      108
 18.830     1401
 18.960      319
 19.090      -60
 19.220       34
 19.350      113
 19.480      -54
 19.610       -1
 19.740      -47
 19.870       76
 20.000      287
 20.130     -133
 20.260      -58
 20.390      474
 20.520      633
 20.650      -20
 20.780      -54
 20.910     1062
 21.040     1364
 21.170      -63
 21.300     -115
 21.430      514
 21.560       95
 21.690       45
 21.820      133
 21.950     -132
 22.080       41
 22.210      209
 22.340      304
 22.470     1010
 22.600      107
 22.730       44
 22.860      123
 22.990      156
 23.120      -62
 23.250      183
 23.380     1635
 23.510      192
 23.640      -42
 23.770      148
 23.900       58
 24.030     -114
 24.160       82
 24.290       -9
 24.420       37
 24.550      -44
 24.680      181
 24.810       32
 24.940     -204
 25.070      -27
 25.200      118
 25.330       93
 25.460       -2
 25.590       -3
 25.720      -87
 25.850      -47
 25.980      -41
 26.110       20
 26.240        9
 26.370      195
 26.500      -44
 26.630     -124
 26.760      543
 26.890      195
 27.020     -112
 27.150      336
 27.280      232
 27.410       12
 27.540      -34
 27.670      -86
 27.800      -42
 27.930      595
 28.060      424
 28.190      -77
 28.320      137
 28.450      142
 28.580        9
 28.710      -83
 28.840       36
 28.970      -64
 29.100       58
 29.230       52
 29.360      141
 29.490      826
 29.620      260
 29.750      -13
 29.880     -115
 30.010       79
 30.140      -11
 30.270     -140
 30.400      147
 30.530      214
 30.660       22
 30.790      -27
 30.920       55
 31.050      -80
 31.180        8
 31.310      103
 31.440       -4
 31.570        2
 31.700      144
 31.830     -133
 31.960       93
 32.090       20
 32.220       11
 32.350     -108
 32.480      -17
 32.610      195
 32.740      190
 32.870      140
 33.000       25
 33.130     -106
 33.260      -40
 33.390      -98
 33.520       32
 33.650       45
 33.780      -43
 33.910       23
 34.040      208
 34.170       79
 34.300      -59
 34.430       14
 34.560       44
 34.690      -75
 34.820      162
 34.950       89
 35.080       18
 35.210      -14
 35.340       41
 35.470      -88
 35.600      113
 35.730     -132
 35.860      -12
 35.990       13
 36.120       -5
 36.250       -6
 36.380      -43
 36.510      -23
 36.640       13
 36.770       10
 36.900       -4
 37.030       33
 37.160       46
 37.290       63
 37.420      107
 37.550       45
 37.680      137
 37.810       95
 37.940      -16
 38.070       19
 38.200      -11
 38.330       29
 38.460       78
 38.590       83
 38.720       56
 38.850       58
 38.980       22
 39.110      -46
 39.240       66
 39.370       -1
 39.500      111
 39.630      151
 39.760       52
 39.890      -14
 39.968        2

File: mof90.CSV
No.,Pos. [°2Th.],Iobs [cts],Icalc [cts],Iback [cts],CT [s],ESD
1,4.0099,0.0000, , ,195.2635,260.4758
7,4.1659,-4101.95, , ,195.2635,245.1331
13,4.3219,11952.5, , ,195.2635,269.0977
19,4.4779,109643, , ,195.2635,407.7958
25,4.6339,16807.7, , ,195.2635,263.9230
31,4.7899,1286.97, , ,195.2635,224.1701
37,4.9459,30.8521, , ,195.2635,212.2219
43,5.1019,376.5051, , ,195.2635,203.0737
49,5.2579,-200.7670, , ,195.2635,192.9557
55,5.4139,-68.4319, , ,195.2635,186.1439
61,5.5699,145.6696, , ,195.2635,183.3239
67,5.7259,208.1563, , ,195.2635,181.2424
73,5.8819,21.2338, , ,195.2635,179.6531
79,6.0379,188.1149, , ,195.2635,181.6397
85,6.1939,3046.15, , ,195.2635,190.5984
91,6.3499,27672.2, , ,195.2635,247.7022
97,6.5059,11081.2, , ,195.2635,212.1338
103,6.6619,4476.96, , ,195.2635,196.3339
109,6.8179,3109.46, , ,195.2635,192.9898
115,6.9739,2129.64, , ,195.2635,190.1695
121,7.1299,1818.81, , ,195.2635,188.8695
127,7.2859,968.8831, , ,195.2635,185.8999
133,7.4419,715.0548, , ,195.2635,184.5046
139,7.5979,1579.97, , ,195.2635,185.9107
145,7.7539,12245.5, , ,195.2635,211.6675
151,7.9099,21379.3, , ,195.2635,230.9842
157,8.0659,876.8216, , ,195.2635,179.4194
163,8.2219,33.2884, , ,195.2635,174.9608
169,8.3779,-137.8736, , ,195.2635,172.0701
175,8.5339,-60.5295, , ,195.2635,170.0592
181,8.6899,98.2543, , ,195.2635,168.4644
187,8.8459,594.0955, , ,195.2635,169.0036
193,9.0019,7947.6, , ,195.2635,188.4713
199,9.1579,6049.9, , ,195.2635,182.0689
205,9.3139,295.9922, , ,195.2635,164.0747
211,9.4699,17.4394, , ,195.2635,161.5144
217,9.6259,115.6091, , ,195.2635,159.8425
223,9.7819,5.9274, , ,195.2635,157.8900
229,9.9379,-155.2629, , ,195.2635,156.0462
235,10.0939,1095.74, , ,195.2635,158.9866
241,10.2499,610.2825, , ,195.2635,155.9197
247,10.4059,8.5619, , ,195.2635,152.4103
253,10.5619,7.1171, , ,195.2635,150.8215
259,10.7179,-125.6310, , ,195.2635,149.4915
265,10.8739,113.0287, , ,195.2635,149.2074
271,11.0299,2152.45, , ,195.2635,154.6672
277,11.1859,7552.73, , ,195.2635,170.1232
283,11.3419,242.2031, , ,195.2635,145.4998
289,11.4979,9.4807, , ,195.2635,142.8127
295,11.6539,13.4531, , ,195.2635,141.1032
301,11.8099,65.2023, , ,195.2635,139.9471
307,11.9659,-44.1635, , ,195.2635,138.6068
313,12.1219,1.5502, , ,195.2635,137.6380
319,12.2779,152.7850, , ,195.2635,137.0989
325,12.4339,-13.2312, , ,195.2635,135.4429
331,12.5899,136.4193, , ,195.2635,135.5818
337,12.7459,23.0154, , ,195.2635,134.7752
343,12.9019,7.0485, , ,195.2635,134.3542
349,13.0579,-94.5975, , ,195.2635,133.0416
355,13.2139,42.3428, , ,195.2635,133.0024
361,13.3699,121.2745, , ,195.2635,133.1283
367,13.5259,974.6576, , ,195.2635,136.1290
373,13.6819,9373.87, , ,195.2635,163.7891
379,13.8379,295.2509, , ,195.2635,132.6150
385,13.9939,132.3793, , ,195.2635,130.9257
391,14.1499,-49.3864, , ,195.2635,129.1121
397,14.3059,61.7025, , ,195.2635,128.3889
403,14.4619,93.2234, , ,195.2635,128.0725
409,14.6179,10.5752, , ,195.2635,127.3077
415,14.7739,21.7632, , ,195.2635,126.9085
421,14.9299,-3.0739, , ,195.2635,126.3418
427,15.0859,-3.8005, , ,195.2635,125.6352
433,15.2419,6.1099, , ,195.2635,124.7322
439,15.3979,-14.8484, , ,195.2635,124.8725
445,15.5539,4.8305, , ,195.2635,125.0247
451,15.7099,121.4347, , ,195.2635,125.4131
457,15.8659,373.8934, , ,195.2635,126.3391
463,16.0219,95.7639, , ,195.2635,124.8483
469,16.1779,-53.8438, , ,195.2635,123.5482
475,16.3339,56.0839, , ,195.2635,124.1212
481,16.4899,63.4403, , ,195.2635,124.2797
487,16.6459,-91.5683, , ,195.2635,123.7838
493,16.8019,24.6638, , ,195.2635,124.0806
499,16.9579,4.8226, , ,195.2635,123.9885
505,17.1139,180.4655, , ,195.2635,124.8418
511,17.2699,-93.1153, , ,195.2635,123.8893
517,17.4259,64.9556, , ,195.2635,124.5135
523,17.5819,84.1486, , ,195.2635,124.4192
529,17.7379,-30.1038, , ,195.2635,123.5390
535,17.8939,71.5346, , ,195.2635,124.0384
541,18.0499,20.3279, , ,195.2635,124.4280
547,18.2059,240.5449, , ,195.2635,125.4427
553,18.3619,218.3774, , ,195.2635,125.4872
559,18.5179,-19.8653, , ,195.2635,124.6681
565,18.6739,-9.4224, , ,195.2635,125.3392
571,18.8299,1401.34, , ,195.2635,131.0776
577,18.9859,182.4352, , ,195.2635,126.2000
583,19.1419,68.6133, , ,195.2635,125.6050
589,19.2979,-105.4937, , ,195.2635,125.1100
595,19.4539,18.8846, , ,195.2635,126.1463
601,19.6099,-1.1176, , ,195.2635,126.6210
607,19.7659,-73.0561, , ,195.2635,126.8212
613,19.9219,199.9756, , ,195.2635,128.3042
619,20.0779,-295.0109, , ,195.2635,126.7767
625,20.2339,-40.4334, , ,195.2635,128.1454
631,20.3899,473.8199, , ,195.2635,130.4562
637,20.5459,413.2813, , ,195.2635,130.5435
643,20.7019,-96.0627, , ,195.2635,128.8200
649,20.8579,249.1191, , ,195.2635,130.3116
655,21.0139,1928.12, , ,195.2635,136.3309
661,21.1699,-63.4639, , ,195.2635,128.5322
667,21.3259,4.4566, , ,195.2635,128.5086
673,21.4819,776.5421, , ,195.2635,131.3845
679,21.6379,63.7926, , ,195.2635,128.2795
685,21.7939,32.6034, , ,195.2635,127.5230
691,21.9499,-132.0745, , ,195.2635,126.2343
697,22.1059,27.4205, , ,195.2635,126.5922
703,22.2619,224.3837, , ,195.2635,127.4633
709,22.4179,997.3463, , ,195.2635,130.5534
715,22.5739,20.5052, , ,195.2635,126.6195
721,22.7299,44.1846, , ,195.2635,126.3415
727,22.8859,79.0984, , ,195.2635,126.3320
733,23.0419,35.1661, , ,195.2635,126.0099
739,23.1979,30.8244, , ,195.2635,125.8444
745,23.3539,1599.59, , ,195.2635,131.2996
751,23.5099,192.3646, , ,195.2635,125.1653
757,23.6659,0.5840, , ,195.2635,123.7279
763,23.8219,150.7261, , ,195.2635,124.0567
769,23.9779,53.3417, , ,195.2635,123.3856
775,24.1339,55.0007, , ,195.2635,123.1138
781,24.2899,-9.1524, , ,195.2635,122.4507
787,24.4459,-41.8374, , ,195.2635,122.2654
793,24.6019,12.2184, , ,195.2635,122.7853
799,24.7579,68.8892, , ,195.2635,123.1783
805,24.9139,-87.5608, , ,195.2635,122.3183
811,25.0699,-27.2478, , ,195.2635,121.9539
817,25.2259,132.0698, , ,195.2635,122.3659
823,25.3819,-103.7143, , ,195.2635,120.9543
829,25.5379,79.7703, , ,195.2635,121.0651
835,25.6939,-32.7960, , ,195.2635,119.9481
841,25.8499,-46.9233, , ,195.2635,119.8043
847,26.0059,-32.6324, , ,195.2635,120.3469
853,26.1619,-71.3977, , ,195.2635,119.9914
859,26.3179,87.4739, , ,195.2635,120.7759
865,26.4739,-51.5969, , ,195.2635,120.6416
871,26.6299,-124.1926, , ,195.2635,120.2462
877,26.7859,507.4510, , ,195.2635,122.7523
883,26.9419,-109.4556, , ,195.2635,120.1189
889,27.0979,78.2074, , ,195.2635,120.3171
895,27.2539,334.1992, , ,195.2635,120.7982
901,27.4099,12.2200, , ,195.2635,118.8706
907,27.5659,101.9566, , ,195.2635,118.9900
913,27.7219,-34.0979, , ,195.2635,118.2465
919,27.8779,81.6149, , ,195.2635,118.6533
925,28.0339,647.9123, , ,195.2635,120.4972
931,28.1899,-76.6213, , ,195.2635,116.9175
937,28.3459,111.3919, , ,195.2635,117.1853
943,28.5019,82.5738, , ,195.2635,116.0700
949,28.6579,-88.9125, , ,195.2635,114.7276
955,28.8139,13.0658, , ,195.2635,114.9742
961,28.9699,-64.4049, , ,195.2635,114.7007
967,29.1259,210.0986, , ,195.2635,115.6868
973,29.2819,19.7012, , ,195.2635,114.3840
979,29.4379,665.9491, , ,195.2635,116.7245
985,29.5939,347.1745, , ,195.2635,114.8935
991,29.7499,-12.6641, , ,195.2635,112.8509
997,29.9059,-67.0795, , ,195.2635,111.7419
1003,30.0619,-171.1399, , ,195.2635,110.7559
1009,30.2179,22.0213, , ,195.2635,111.4631
1015,30.3739,-78.2357, , ,195.2635,110.1866
1021,30.5299,213.5360, , ,195.2635,111.1135
1027,30.6859,56.8328, , ,195.2635,110.4483
1033,30.8419,39.7139, , ,195.2635,109.8865
1039,30.9979,-67.6298, , ,195.2635,108.7277
1045,31.1539,-28.7868, , ,195.2635,108.0519
1051,31.3099,103.0618, , ,195.2635,108.3531
1057,31.4659,-6.7454, , ,195.2635,107.4861
1063,31.6219,-23.7636, , ,195.2635,106.9964
1069,31.7779,168.7296, , ,195.2635,106.7742
1075,31.9339,-27.4655, , ,195.2635,105.1501
1081,32.0899,20.4348, , ,195.2635,105.1115
1087,32.2459,32.5610, , ,195.2635,105.2769
1093,32.4019,7.4262, , ,195.2635,105.1987
1099,32.5579,-22.1606, , ,195.2635,105.0326
1105,32.7139,290.3898, , ,195.2635,105.5796
1111,32.8699,139.6094, , ,195.2635,104.1038
1117,33.0259,174.6520, , ,195.2635,103.6950
1123,33.1819,101.2661, , ,195.2635,102.7583
1129,33.3379,27.5221, , ,195.2635,102.0793
1135,33.4939,-62.7715, , ,195.2635,101.5836
1141,33.6499,45.4143, , ,195.2635,101.6239
1147,33.8059,62.0297, , ,195.2635,101.0991
1153,33.9619,224.3027, , ,195.2635,101.1796
1159,34.1179,27.1980, , ,195.2635,99.4696
1165,34.2739,-22.8117, , ,195.2635,98.7886
1171,34.4299,13.7769, , ,195.2635,98.8523
1177,34.5859,-56.6365, , ,195.2635,97.8368
1183,34.7419,-7.8283, , ,195.2635,97.7557
1189,34.8979,5.0954, , ,195.2635,97.8218
1195,35.0539,56.6884, , ,195.2635,98.0851
1201,35.2099,-13.8829, , ,195.2635,97.5301
1207,35.3659,-37.6081, , ,195.2635,97.0175
1213,35.5219,131.7851, , ,195.2635,97.5591
1219,35.6779,78.6068, , ,195.2635,96.9567
1225,35.8339,-68.6729, , ,195.2635,95.8610
1231,35.9899,12.7237, , ,195.2635,95.5618
1237,36.1459,1.8330, , ,195.2635,94.8991
1243,36.3019,22.6790, , ,195.2635,94.5234
1249,36.4579,-52.5560, , ,195.2635,94.2025
1255,36.6139,-2.8466, , ,195.2635,94.1302
1261,36.7699,9.7509, , ,195.2635,93.4438
1267,36.9259,-13.3532, , ,195.2635,93.1056
1273,37.0819,76.1223, , ,195.2635,93.2816
1279,37.2379,-20.1910, , ,195.2635,92.3678
1285,37.3939,183.8457, , ,195.2635,93.3498
1291,37.5499,45.4909, , ,195.2635,92.4887
1297,37.7059,96.2345, , ,195.2635,92.6457
1303,37.8619,45.9923, , ,195.2635,91.5223
1309,38.0179,-75.5784, , ,195.2635,90.3314
1315,38.1739,68.8666, , ,195.2635,90.9443
1321,38.3299,28.7830, , ,195.2635,90.5987
1327,38.4859,166.4271, , ,195.2635,91.2693
1333,38.6419,237.9470, , ,195.2635,91.6130
1339,38.7979,112.4798, , ,195.2635,90.8780
1345,38.9539,41.8688, , ,195.2635,90.2692
1351,39.1099,-46.4754, , ,195.2635,89.3841
1357,39.2659,107.5345, , ,195.2635,90.5145
1363,39.4219,19.0689, , ,195.2635,90.2349
1369,39.5779,-23.4356, , ,195.2635,90.1463
1375,39.7339,20.1328, , ,195.2635,90.5343
1381,39.8899,-14.4981, , ,195.2635,90.4896
1384,39.9679,2.2111, , ,195.2635,90.6307

File: mof170.ASC
  4.010        0
  4.140    -4657
  4.270      697
  4.400    25656
  4.530   124344
  4.660    19068
  4.790     2091
  4.920      155
  5.050     -163
  5.180       37
  5.310       -2
  5.440      -83
  5.570      254
  5.700      114
  5.830     -146
  5.960     -121
  6.090      -11
  6.220     2355
  6.350    14883
  6.480    37051
  6.610     3532
  6.740     1160
  6.870      657
  7.000      105
  7.130      152
  7.260       40
  7.390       32
  7.520      159
  7.650     1486
  7.780     9017
  7.910    36880
  8.040     3400
  8.170      804
  8.300      225
  8.430       -1
  8.560      109
  8.690     -135
  8.820      225
  8.950     1578
  9.080    12553
  9.210     4832
  9.340      565
  9.470      269
  9.600       33
  9.730      215
  9.860      114
  9.990       96
 10.120      504
 10.250     1389
 10.380      184
 10.510       81
 10.640       12
 10.770       30
 10.900      122
 11.030      959
 11.160     8713
 11.290     1899
 11.420      124
 11.550     -175
 11.680     -120
 11.810     -125
 11.940     -148
 12.070      -99
 12.200      -57
 12.330      -73
 12.460      -20
 12.590       29
 12.720     -135
 12.850      -98
 12.980       65
 13.110       32
 13.240       21
 13.370        5
 13.500      273
 13.630     2752
 13.760     7600
 13.890      437
 14.020     -149
 14.150      -29
 14.280     -114
 14.410     -100
 14.540       10
 14.670      -63
 14.800      103
 14.930       28
 15.060       95
 15.190        1
 15.320     -104
 15.450       70
 15.580        5
 15.710       29
 15.840      539
 15.970       43
 16.100       60
 16.230       86
 16.360      -67
 16.490       27
 16.620       44
 16.750      -73
 16.880       51
 17.010       40
 17.140      205
 17.270      209
 17.400      -94
 17.530      -74
 17.660       61
 17.790       32
 17.920        8
 18.050       -3
 18.180       22
 18.310      467
 18.440       36
 18.570      -41
 18.700      -15
 18.830      460
 18.960     1097
 19.090      106
 19.220     -121
 19.350       65
 19.480      113
 19.610     -103
 19.740       -3
 19.870     -144
 20.000      341
 20.130       -4
 20.260       56
 20.390      -35
 20.520     1218
 20.650       10
 20.780      -70
 20.910      149
 21.040     2655
 21.170      368
 21.300       21
 21.430      -48
 21.560      831
 21.690       82
 21.820     -106
 21.950      -65
 22.080      -55
 22.210      -52
 22.340       -9
 22.470      691
 22.600      541
 22.730       38
 22.860       -5
 22.990      207
 23.120      -31
 23.250      137
 23.380      865
 23.510     1049
 23.640       74
 23.770      202
 23.900      104
 24.030        0
 24.160       42
 24.290      113
 24.420        0
 24.550       22
 24.680      220
 24.810      561
 24.940      194
 25.070       74
 25.200      263
 25.330      167
 25.460      -90
 25.590       93
 25.720        1
 25.850       76
 25.980       23
 26.110      -45
 26.240      -45
 26.370      109
 26.500       32
 26.630       54
 26.760      168
 26.890      675
 27.020       51
 27.150     -100
 27.280      526
 27.410       42
 27.540      -73
 27.670       72
 27.800     -115
 27.930      219
 28.060      901
 28.190      163
 28.320       43
 28.450      327
 28.580       40
 28.710     -114
 28.840      -13
 28.970      -59
 29.100      -41
 29.230       69
 29.360      -33
 29.490      278
 29.620      837
 29.750       83
 29.880     -147
 30.010     -120
 30.140       27
 30.270      179
 30.400       91
 30.530        5
 30.660      411
 30.790      159
 30.920       21
 31.050       61
 31.180      -62
 31.310       27
 31.440       93
 31.570       92
 31.700       15
 31.830      -22
 31.960      -49
 32.090       31
 32.220       -7
 32.350       22
 32.480      -15
 32.610       40
 32.740      479
 32.870      135
 33.000       31
 33.130      106
 33.260      102
 33.390      -30
 33.520       36
 33.650       -7
 33.780      -40
 33.910      -32
 34.040      171
 34.170      184
 34.300      -28
 34.430       59
 34.560     -124
 34.690       21
 34.820       -8
 34.950       78
 35.080       70
 35.210     -109
 35.340       67
 35.470     -181
 35.600      151
 35.730        8
 35.860       21
 35.990      104
 36.120       18
 36.250       39
 36.380       89
 36.510      -27
 36.640       12
 36.770      -48
 36.900       26
 37.030      200
 37.160      -48
 37.290      125
 37.420       82
 37.550       95
 37.680        9
 37.810      130
 37.940      -23
 38.070       20
 38.200      -19
 38.330      -61
 38.460      -40
 38.590       62
 38.720      203
 38.850      -26
 38.980      -55
 39.110       34
 39.240       24
 39.370       39
 39.500       83
 39.630      -30
 39.760       95
 39.890      112
 39.968        1