Folder: labo/2021/xrd/baseline_correction (part 2)

File: mof170.CSV
No.,Pos. [°2Th.],Iobs [cts],Icalc [cts],Iback [cts],CT [s],ESD
1,4.0099,0.0000, , ,195.2635,255.0640
7,4.1659,-4648.75, , ,195.2635,237.4517
13,4.3219,7160.1, , ,195.2635,253.1411
19,4.4779,70276.9, , ,195.2635,350.7126
25,4.6339,36761.7, , ,195.2635,292.0379
31,4.7899,2090.74, , ,195.2635,215.2465
37,4.9459,49.0297, , ,195.2635,199.7975
43,5.1019,-351.5861, , ,195.2635,190.9444
49,5.2579,109.9083, , ,195.2635,186.5938
55,5.4139,18.1884, , ,195.2635,183.2381
61,5.5699,254.3482, , ,195.2635,180.8397
67,5.7259,97.4094, , ,195.2635,178.2360
73,5.8819,97.1220, , ,195.2635,176.9777
79,6.0379,22.6420, , ,195.2635,176.9034
85,6.1939,1784.51, , ,195.2635,181.7387
91,6.3499,14883.4, , ,195.2635,214.5326
97,6.5059,20774.2, , ,195.2635,227.6211
103,6.6619,2313.12, , ,195.2635,182.1286
109,6.8179,450.0320, , ,195.2635,176.2167
115,6.9739,390.1944, , ,195.2635,174.7451
121,7.1299,152.1354, , ,195.2635,172.4598
127,7.2859,-143.6099, , ,195.2635,169.6832
133,7.4419,-183.5378, , ,195.2635,168.7426
139,7.5979,741.3836, , ,195.2635,170.4199
145,7.7539,6076.37, , ,195.2635,184.2396
151,7.9099,36879.9, , ,195.2635,253.6021
157,8.0659,2456.67, , ,195.2635,171.4045
163,8.2219,359.5621, , ,195.2635,163.3811
169,8.3779,41.5468, , ,195.2635,159.9651
175,8.5339,-5.4044, , ,195.2635,157.6407
181,8.6899,-135.4040, , ,195.2635,155.3209
187,8.8459,454.3173, , ,195.2635,156.4597
193,9.0019,3775.75, , ,195.2635,165.8255
199,9.1579,17324.5, , ,195.2635,201.6817
205,9.3139,892.1789, , ,195.2635,154.5052
211,9.4699,268.6556, , ,195.2635,151.0253
217,9.6259,-61.8658, , ,195.2635,148.2233
223,9.7819,159.1955, , ,195.2635,147.6365
229,9.9379,21.3305, , ,195.2635,145.8061
235,10.0939,332.8224, , ,195.2635,145.4891
241,10.2499,1388.74, , ,195.2635,147.7131
247,10.4059,12.6687, , ,195.2635,141.3117
253,10.5619,-60.4744, , ,195.2635,139.1098
259,10.7179,-61.7299, , ,195.2635,138.3556
265,10.8739,87.5541, , ,195.2635,138.3209
271,11.0299,958.7698, , ,195.2635,141.0466
277,11.1859,10710.5, , ,195.2635,171.4800
283,11.3419,741.6911, , ,195.2635,138.5502
289,11.4979,-111.5541, , ,195.2635,134.5453
295,11.6539,145.9803, , ,195.2635,134.3428
301,11.8099,-124.9166, , ,195.2635,132.0723
307,11.9659,61.9955, , ,195.2635,131.4306
313,12.1219,-183.1888, , ,195.2635,129.9826
319,12.2779,-9.0494, , ,195.2635,129.8677
325,12.4339,54.2672, , ,195.2635,129.0514
331,12.5899,28.7014, , ,195.2635,128.2941
337,12.7459,-71.3066, , ,195.2635,126.9909
343,12.9019,-25.0730, , ,195.2635,126.0037
349,13.0579,135.0187, , ,195.2635,125.8929
355,13.2139,-1.7792, , ,195.2635,124.9008
361,13.3699,4.7260, , ,195.2635,124.7827
367,13.5259,438.9054, , ,195.2635,126.6736
373,13.6819,6543.02, , ,195.2635,148.7894
379,13.8379,1371.4, , ,195.2635,130.0052
385,13.9939,114.6512, , ,195.2635,124.8171
391,14.1499,-28.6066, , ,195.2635,123.7446
397,14.3059,49.6974, , ,195.2635,123.3276
403,14.4619,68.9278, , ,195.2635,122.7284
409,14.6179,48.9422, , ,195.2635,122.0913
415,14.7739,-33.0847, , ,195.2635,121.3215
421,14.9299,28.3509, , ,195.2635,120.8926
427,15.0859,-28.6037, , ,195.2635,120.2223
433,15.2419,-60.2479, , ,195.2635,119.9073
439,15.3979,-51.7092, , ,195.2635,119.0670
445,15.5539,-25.6675, , ,195.2635,118.8683
451,15.7099,28.9148, , ,195.2635,119.3604
457,15.8659,567.6406, , ,195.2635,121.4728
463,16.0219,-89.1786, , ,195.2635,118.6121
469,16.1779,-26.6257, , ,195.2635,118.7492
475,16.3339,-32.1894, , ,195.2635,118.5460
481,16.4899,27.4456, , ,195.2635,118.9486
487,16.6459,-72.0164, , ,195.2635,119.0125
493,16.8019,-43.1859, , ,195.2635,118.9152
499,16.9579,-2.2293, , ,195.2635,118.9640
505,17.1139,131.0705, , ,195.2635,119.4951
511,17.2699,208.9023, , ,195.2635,119.7925
517,17.4259,20.7836, , ,195.2635,119.0747
523,17.5819,38.2796, , ,195.2635,119.3159
529,17.7379,59.3586, , ,195.2635,119.0463
535,17.8939,-30.0595, , ,195.2635,118.5859
541,18.0499,-3.4555, , ,195.2635,118.8888
547,18.2059,152.6091, , ,195.2635,119.9386
553,18.3619,533.6122, , ,195.2635,121.9055
559,18.5179,37.5847, , ,195.2635,120.2480
565,18.6739,-147.1557, , ,195.2635,119.9063
571,18.8299,459.7313, , ,195.2635,122.5074
577,18.9859,690.4987, , ,195.2635,123.2213
583,19.1419,47.3151, , ,195.2635,120.3536
589,19.2979,50.2238, , ,195.2635,120.5040
595,19.4539,113.5697, , ,195.2635,121.2706
601,19.6099,-103.0052, , ,195.2635,120.8801
607,19.7659,119.0137, , ,195.2635,122.2689
613,19.9219,185.0496, , ,195.2635,122.9839
619,20.0779,171.0696, , ,195.2635,123.3710
625,20.2339,78.6899, , ,195.2635,123.4694
631,20.3899,-35.0077, , ,195.2635,123.5111
637,20.5459,1280.03, , ,195.2635,128.5873
643,20.7019,-100.2398, , ,195.2635,122.9597
649,20.8579,7.3630, , ,195.2635,123.2532
655,21.0139,2194.08, , ,195.2635,131.6919
661,21.1699,368.0795, , ,195.2635,124.4243
667,21.3259,105.6238, , ,195.2635,123.2218
673,21.4819,537.9821, , ,195.2635,124.5551
679,21.6379,237.2461, , ,195.2635,122.9278
685,21.7939,-28.9099, , ,195.2635,121.4211
691,21.9499,-65.3704, , ,195.2635,121.5125
697,22.1059,-48.7049, , ,195.2635,121.7674
703,22.2619,85.1793, , ,195.2635,122.4466
709,22.4179,361.8046, , ,195.2635,123.5549
715,22.5739,727.7180, , ,195.2635,125.0109
721,22.7299,37.9180, , ,195.2635,122.2044
727,22.8859,36.3844, , ,195.2635,121.9906
733,23.0419,116.9854, , ,195.2635,122.1133
739,23.1979,-16.7091, , ,195.2635,121.3561
745,23.3539,558.8427, , ,195.2635,123.0861
751,23.5099,1049.08, , ,195.2635,124.4498
757,23.6659,25.7636, , ,195.2635,119.6318
763,23.8219,7.7879, , ,195.2635,119.1852
769,23.9779,166.8775, , ,195.2635,119.4803
775,24.1339,17.1814, , ,195.2635,118.4786
781,24.2899,113.0449, , ,195.2635,118.7450
787,24.4459,79.0933, , ,195.2635,118.4642
793,24.6019,-28.6901, , ,195.2635,117.8699
799,24.7579,595.1200, , ,195.2635,120.6004
805,24.9139,-12.4010, , ,195.2635,118.1705
811,25.0699,74.4542, , ,195.2635,118.6527
817,25.2259,491.5967, , ,195.2635,120.0289
823,25.3819,-30.4593, , ,195.2635,117.4573
829,25.5379,23.2386, , ,195.2635,117.3083
835,25.6939,59.0299, , ,195.2635,117.4267
841,25.8499,75.9593, , ,195.2635,117.6490
847,26.0059,-17.2387, , ,195.2635,117.5872
853,26.1619,87.5681, , ,195.2635,117.7323
859,26.3179,95.9046, , ,195.2635,117.6205
865,26.4739,188.8203, , ,195.2635,118.0204
871,26.6299,53.9444, , ,195.2635,117.4533
877,26.7859,248.1696, , ,195.2635,118.3336
883,26.9419,452.2679, , ,195.2635,119.2991
889,27.0979,-115.4263, , ,195.2635,117.0039
895,27.2539,495.3338, , ,195.2635,119.4125
901,27.4099,41.7503, , ,195.2635,117.0374
907,27.5659,-3.5462, , ,195.2635,116.2832
913,27.7219,36.4370, , ,195.2635,115.8926
919,27.8779,9.0425, , ,195.2635,115.2087
925,28.0339,902.8069, , ,195.2635,118.6457
931,28.1899,163.2194, , ,195.2635,115.0966
937,28.3459,-37.4074, , ,195.2635,113.8270
943,28.5019,134.1631, , ,195.2635,114.2986
949,28.6579,-130.6556, , ,195.2635,112.5523
955,28.8139,50.9653, , ,195.2635,112.4765
961,28.9699,-58.8622, , ,195.2635,111.7846
967,29.1259,17.9603, , ,195.2635,112.1664
973,29.2819,-41.5578, , ,195.2635,112.1804
979,29.4379,-63.9951, , ,195.2635,112.0268
985,29.5939,885.0169, , ,195.2635,115.8923
991,29.7499,82.8895, , ,195.2635,111.8253
997,29.9059,-50.6157, , ,195.2635,110.6679
1003,30.0619,-161.4880, , ,195.2635,109.4007
1009,30.2179,-39.0190, , ,195.2635,108.9907
1015,30.3739,-31.6928, , ,195.2635,108.5463
1021,30.5299,5.1724, , ,195.2635,108.2428
1027,30.6859,351.4801, , ,195.2635,109.3686
1033,30.8419,114.8226, , ,195.2635,107.8123
1039,30.9979,28.2936, , ,195.2635,107.1461
1045,31.1539,24.2925, , ,195.2635,107.0714
1051,31.3099,26.8156, , ,195.2635,106.2959
1057,31.4659,103.3861, , ,195.2635,105.8649
1063,31.6219,9.1019, , ,195.2635,104.6188
1069,31.7779,-11.4610, , ,195.2635,103.8422
1075,31.9339,-38.6589, , ,195.2635,103.5664
1081,32.0899,31.4588, , ,195.2635,104.2951
1087,32.2459,-12.5820, , ,195.2635,103.4928
1093,32.4019,19.6816, , ,195.2635,103.0648
1099,32.5579,-33.7467, , ,195.2635,102.2265
1105,32.7139,423.5953, , ,195.2635,104.3468
1111,32.8699,135.1521, , ,195.2635,102.5800
1117,33.0259,30.3000, , ,195.2635,101.4041
1123,33.1819,-84.4226, , ,195.2635,100.1653
1129,33.3379,8.1787, , ,195.2635,100.1574
1135,33.4939,-23.2164, , ,195.2635,99.7336
1141,33.6499,-7.2624, , ,195.2635,100.0670
1147,33.8059,-10.8563, , ,195.2635,99.9590
1153,33.9619,26.7715, , ,195.2635,99.7134
1159,34.1179,304.6342, , ,195.2635,100.2429
1165,34.2739,20.1485, , ,195.2635,97.9395
1171,34.4299,58.6387, , ,195.2635,97.2555
1177,34.5859,-70.8492, , ,195.2635,96.0060
1183,34.7419,-64.6569, , ,195.2635,95.7079
1189,34.8979,-15.4455, , ,195.2635,95.8882
1195,35.0539,251.0824, , ,195.2635,97.5897
1201,35.2099,-109.3027, , ,195.2635,95.7289
1207,35.3659,-59.6973, , ,195.2635,95.6677
1213,35.5219,-15.7375, , ,195.2635,95.5803
1219,35.6779,90.8954, , ,195.2635,95.8205
1225,35.8339,62.2431, , ,195.2635,95.3533
1231,35.9899,103.9704, , ,195.2635,94.2654
1237,36.1459,-67.0785, , ,195.2635,92.7699
1243,36.3019,13.3288, , ,195.2635,93.3666
1249,36.4579,-5.7776, , ,195.2635,92.4674
1255,36.6139,57.7457, , ,195.2635,92.1109
1261,36.7699,-47.5312, , ,195.2635,90.9311
1267,36.9259,-10.2506, , ,195.2635,90.8648
1273,37.0819,33.1062, , ,195.2635,90.8319
1279,37.2379,-63.9644, , ,195.2635,90.0224
1285,37.3939,35.2991, , ,195.2635,90.7302
1291,37.5499,94.5607, , ,195.2635,91.2135
1297,37.7059,-49.0437, , ,195.2635,90.5812
1303,37.8619,41.0028, , ,195.2635,90.2090
1309,38.0179,-185.7341, , ,195.2635,88.2285
1315,38.1739,-6.4917, , ,195.2635,88.6990
1321,38.3299,-60.6797, , ,195.2635,88.6866
1327,38.4859,7.9068, , ,195.2635,89.0313
1333,38.6419,111.0751, , ,195.2635,89.2361
1339,38.7979,93.8521, , ,195.2635,88.7648
1345,38.9539,-53.8729, , ,195.2635,87.8301
1351,39.1099,33.8334, , ,195.2635,88.5089
1357,39.2659,54.9013, , ,195.2635,88.6354
1363,39.4219,43.8612, , ,195.2635,88.6128
1369,39.5779,46.5754, , ,195.2635,88.7000
1375,39.7339,70.3296, , ,195.2635,88.9056
1381,39.8899,111.8866, , ,195.2635,89.2104
1384,39.9679,1.0623, , ,195.2635,88.6111

File: mof230.ASC
  4.010        0
  4.140    -6737
  4.270    -6420
  4.400    -1146
  4.530    21464
  4.660    42632
  4.790     5320
  4.920      290
  5.050     -414
  5.180       45
  5.310      -96
  5.440      -61
  5.570       78
  5.700       -2
  5.830     -101
  5.960      130
  6.090      -67
  6.220      274
  6.350     3824
  6.480    14849
  6.610     7349
  6.740     1895
  6.870     1200
  7.000     1386
  7.130     1070
  7.260      974
  7.390      711
  7.520      484
  7.650      397
  7.780     2561
  7.910    10799
  8.040     6860
  8.170      781
  8.300       40
  8.430      -51
  8.560       11
  8.690       15
  8.820      112
  8.950      301
  9.080     4394
  9.210     7268
  9.340     1142
  9.470      -26
  9.600       49
  9.730      -23
  9.860      -95
  9.990      -88
 10.120      167
 10.250     1118
 10.380      366
 10.510      -17
 10.640      105
 10.770       49
 10.900      -69
 11.030      260
 11.160     2621
 11.290     2443
 11.420      344
 11.550      -80
 11.680      -30
 11.810      259
 11.940      -44
 12.070       72
 12.200       29
 12.330       21
 12.460      -60
 12.590      -57
 12.720       22
 12.850        1
 12.980       95
 13.110       84
 13.240      -59
 13.370       17
 13.500      -59
 13.630     1040
 13.760     3520
 13.890      445
 14.020      105
 14.150     -171
 14.280       65
 14.410     -108
 14.540       75
 14.670        0
 14.800       33
 14.930       70
 15.060      -68
 15.190      185
 15.320      -23
 15.450       73
 15.580       11
 15.710      -17
 15.840      238
 15.970      153
 16.100       83
 16.230       -7
 16.360      -96
 16.490      189
 16.620      232
 16.750       21
 16.880       55
 17.010       31
 17.140     -150
 17.270       70
 17.400      -14
 17.530        0
 17.660      -14
 17.790      -37
 17.920       -7
 18.050       17
 18.180       47
 18.310      272
 18.440       19
 18.570       43
 18.700      -22
 18.830      364
 18.960      726
 19.090      -37
 19.220      -41
 19.350      152
 19.480       15
 19.610       43
 19.740       21
 19.870      222
 20.000       48
 20.130       90
 20.260      135
 20.390       36
 20.520      572
 20.650      228
 20.780       17
 20.910      159
 21.040     1055
 21.170      276
 21.300      -75
 21.430      150
 21.560      462
 21.690      -26
 21.820      -17
 21.950       62
 22.080      109
 22.210       50
 22.340      -94
 22.470      689
 22.600      225
 22.730      -62
 22.860        8
 22.990       96
 23.120      -28
 23.250       66
 23.380      502
 23.510      590
 23.640       63
 23.770      -60
 23.900      -40
 24.030      -51
 24.160       78
 24.290       45
 24.420      136
 24.550      -27
 24.680       80
 24.810      326
 24.940      -68
 25.070       82
 25.200      215
 25.330      108
 25.460     -183
 25.590       96
 25.720       68
 25.850       27
 25.980       94
 26.110       10
 26.240       -5
 26.370       47
 26.500       -1
 26.630      -65
 26.760       88
 26.890      178
 27.020       44
 27.150       23
 27.280      195
 27.410       41
 27.540     -125
 27.670      -16
 27.800      -43
 27.930      -17
 28.060      451
 28.190      178
 28.320     -108
 28.450      200
 28.580        2
 28.710       -9
 28.840        8
 28.970      -53
 29.100       -8
 29.230      -20
 29.360        1
 29.490      158
 29.620      222
 29.750       93
 29.880       66
 30.010       90
 30.140     -176
 30.270        7
 30.400       65
 30.530       39
 30.660      119
 30.790      115
 30.920       21
 31.050       11
 31.180       -9
 31.310      158
 31.440      -45
 31.570       52
 31.700      -70
 31.830       67
 31.960       61
 32.090       29
 32.220       23
 32.350      -24
 32.480      111
 32.610      148
 32.740      203
 32.870      -51
 33.000       53
 33.130       19
 33.260     -107
 33.390       16
 33.520      -45
 33.650      112
 33.780       72
 33.910       66
 34.040      153
 34.170       15
 34.300       -5
 34.430       30
 34.560      -77
 34.690       37
 34.820      -45
 34.950        0
 35.080      -46
 35.210       59
 35.340       49
 35.470      102
 35.600      109
 35.730       82
 35.860       59
 35.990      -26
 36.120      -56
 36.250        2
 36.380       61
 36.510      -34
 36.640       90
 36.770        8
 36.900       97
 37.030      -26
 37.160      128
 37.290       -1
 37.420       -3
 37.550       45
 37.680      -35
 37.810      104
 37.940       30
 38.070       60
 38.200       48
 38.330       66
 38.460       19
 38.590      135
 38.720        5
 38.850       31
 38.980       -4
 39.110       29
 39.240       61
 39.370       32
 39.500      145
 39.630       -5
 39.760       47
 39.890      -39
 39.968        2

File: mof230.CSV
No.,Pos. [°2Th.],Iobs [cts],Icalc [cts],Iback [cts],CT [s],ESD
1,4.0099,0.0000, , ,195.2635,261.3343
7,4.1659,-6921.19, , ,195.2635,240.6666
13,4.3219,-5213.29, , ,195.2635,236.9125
19,4.4779,8532.58, , ,195.2635,257.5379
25,4.6339,46286.5, , ,195.2635,317.0681
31,4.7899,5320.31, , ,195.2635,236.5830
37,4.9459,158.4821, , ,195.2635,217.1831
43,5.1019,-103.6789, , ,195.2635,209.7959
49,5.2579,-41.9123, , ,195.2635,204.1456
55,5.4139,6.6259, , ,195.2635,199.5360
61,5.5699,78.3676, , ,195.2635,196.1930
67,5.7259,-154.3042, , ,195.2635,192.6838
73,5.8819,-51.0789, , ,195.2635,190.6854
79,6.0379,-26.8178, , ,195.2635,189.2367
85,6.1939,194.7873, , ,195.2635,188.7789
91,6.3499,3823.93, , ,195.2635,197.6159
97,6.5059,15976.1, , ,195.2635,225.6458
103,6.6619,3307.4, , ,195.2635,194.7345
109,6.8179,1426.36, , ,195.2635,188.8837
115,6.9739,1527.05, , ,195.2635,188.1869
121,7.1299,1069.56, , ,195.2635,185.8917
127,7.2859,923.6085, , ,195.2635,184.3124
133,7.4419,672.1817, , ,195.2635,182.2194
139,7.5979,406.0985, , ,195.2635,179.9475
145,7.7539,1742.31, , ,195.2635,181.9880
151,7.9099,10799.3, , ,195.2635,203.6867
157,8.0659,4380.39, , ,195.2635,185.3078
163,8.2219,357.6165, , ,195.2635,171.8826
169,8.3779,150.1964, , ,195.2635,168.7884
175,8.5339,76.8319, , ,195.2635,166.2112
181,8.6899,15.0962, , ,195.2635,163.8020
187,8.8459,84.7649, , ,195.2635,162.2773
193,9.0019,1038.38, , ,195.2635,163.3844
199,9.1579,8065.8, , ,195.2635,181.9411
205,9.3139,1816.25, , ,195.2635,161.9681
211,9.4699,-26.3763, , ,195.2635,154.0956
217,9.6259,-0.0048, , ,195.2635,151.9868
223,9.7819,33.5170, , ,195.2635,150.5684
229,9.9379,19.3683, , ,195.2635,149.1600
235,10.0939,-112.2332, , ,195.2635,147.5255
241,10.2499,1117.55, , ,195.2635,150.1673
247,10.4059,166.5035, , ,195.2635,145.4505
253,10.5619,-4.8751, , ,195.2635,143.3218
259,10.7179,-68.1284, , ,195.2635,141.9362
265,10.8739,-236.2529, , ,195.2635,140.1264
271,11.0299,260.2609, , ,195.2635,140.6388
277,11.1859,3189.84, , ,195.2635,149.5198
283,11.3419,1131.31, , ,195.2635,141.1405
289,11.4979,75.5458, , ,195.2635,135.8806
295,11.6539,-6.5666, , ,195.2635,134.4474
301,11.8099,258.8280, , ,195.2635,134.5443
307,11.9659,-60.6688, , ,195.2635,132.7002
313,12.1219,34.9614, , ,195.2635,132.2408
319,12.2779,-80.8429, , ,195.2635,130.9904
325,12.4339,35.9797, , ,195.2635,130.6368
331,12.5899,-57.1669, , ,195.2635,129.3194
337,12.7459,76.2604, , ,195.2635,129.0837
343,12.9019,118.4597, , ,195.2635,128.7069
349,13.0579,58.2012, , ,195.2635,127.9292
355,13.2139,-146.0102, , ,195.2635,126.8358
361,13.3699,17.3005, , ,195.2635,127.4414
367,13.5259,22.7425, , ,195.2635,127.3600
373,13.6819,2306.44, , ,195.2635,135.7954
379,13.8379,1796.1, , ,195.2635,133.5233
385,13.9939,-42.2311, , ,195.2635,126.0498
391,14.1499,-170.5626, , ,195.2635,124.9684
397,14.3059,49.2849, , ,195.2635,125.1091
403,14.4619,-46.1679, , ,195.2635,123.9845
409,14.6179,128.0116, , ,195.2635,124.0995
415,14.7739,-56.3095, , ,195.2635,122.9215
421,14.9299,70.3433, , ,195.2635,123.2248
427,15.0859,-105.2886, , ,195.2635,122.2349
433,15.2419,52.0166, , ,195.2635,122.5399
439,15.3979,-8.1587, , ,195.2635,121.9556
445,15.5539,-88.7044, , ,195.2635,121.3451
451,15.7099,-16.9366, , ,195.2635,121.4210
457,15.8659,275.6215, , ,195.2635,122.4294
463,16.0219,38.6437, , ,195.2635,121.2655
469,16.1779,34.7597, , ,195.2635,121.0568
475,16.3339,-60.1098, , ,195.2635,120.7196
481,16.4899,189.0551, , ,195.2635,121.6527
487,16.6459,63.1973, , ,195.2635,120.8892
493,16.8019,-88.2358, , ,195.2635,120.0143
499,16.9579,-62.2885, , ,195.2635,120.0613
505,17.1139,148.6131, , ,195.2635,121.0604
511,17.2699,70.3630, , ,195.2635,120.8609
517,17.4259,14.9872, , ,195.2635,120.5750
523,17.5819,-40.7202, , ,195.2635,120.1053
529,17.7379,-46.1874, , ,195.2635,120.1658
535,17.8939,-107.4590, , ,195.2635,119.9217
541,18.0499,17.4969, , ,195.2635,120.3806
547,18.2059,-5.2745, , ,195.2635,120.1668
553,18.3619,258.7066, , ,195.2635,121.1420
559,18.5179,-25.3882, , ,195.2635,119.8441
565,18.6739,86.1238, , ,195.2635,120.6377
571,18.8299,364.3165, , ,195.2635,121.9446
577,18.9859,543.2633, , ,195.2635,122.6693
583,19.1419,-145.5762, , ,195.2635,119.8218
589,19.2979,-3.8105, , ,195.2635,120.3489
595,19.4539,143.5097, , ,195.2635,120.8408
601,19.6099,43.1160, , ,195.2635,120.3056
607,19.7659,-103.7563, , ,195.2635,119.8620
613,19.9219,99.6346, , ,195.2635,121.1595
619,20.0779,60.3816, , ,195.2635,121.4484
625,20.2339,3.4722, , ,195.2635,121.5208
631,20.3899,36.0273, , ,195.2635,121.8176
637,20.5459,557.8369, , ,195.2635,123.8877
643,20.7019,61.7857, , ,195.2635,121.8152
649,20.8579,-21.0589, , ,195.2635,121.4205
655,21.0139,921.7884, , ,195.2635,124.8297
661,21.1699,275.6698, , ,195.2635,121.7908
667,21.3259,-4.5369, , ,195.2635,120.2059
673,21.4819,130.8570, , ,195.2635,120.5329
679,21.6379,239.0804, , ,195.2635,120.7466
685,21.7939,33.1191, , ,195.2635,119.6542
691,21.9499,62.4111, , ,195.2635,119.5341
697,22.1059,13.2536, , ,195.2635,119.0851
703,22.2619,14.2209, , ,195.2635,118.8454
709,22.4179,330.3189, , ,195.2635,120.2705
715,22.5739,392.8503, , ,195.2635,120.6324
721,22.7299,-61.6387, , ,195.2635,118.8375
727,22.8859,18.9811, , ,195.2635,118.9943
733,23.0419,133.8604, , ,195.2635,119.2946
739,23.1979,48.5566, , ,195.2635,118.7542
745,23.3539,441.0341, , ,195.2635,120.2790
751,23.5099,589.8025, , ,195.2635,120.6806
757,23.6659,29.4103, , ,195.2635,118.0144
763,23.8219,-81.1828, , ,195.2635,117.2212
769,23.9779,-76.5877, , ,195.2635,116.9220
775,24.1339,69.8083, , ,195.2635,117.2340
781,24.2899,45.4369, , ,195.2635,116.8165
787,24.4459,-78.6880, , ,195.2635,116.1693
793,24.6019,22.6607, , ,195.2635,116.6904
799,24.7579,254.0250, , ,195.2635,117.7088
805,24.9139,81.2736, , ,195.2635,117.0040
811,25.0699,82.1147, , ,195.2635,117.0389
817,25.2259,136.2079, , ,195.2635,117.1447
823,25.3819,47.3542, , ,195.2635,116.4532
829,25.5379,101.5700, , ,195.2635,116.1877
835,25.6939,80.7150, , ,195.2635,115.7816
841,25.8499,26.9547, , ,195.2635,115.5896
847,26.0059,2.5686, , ,195.2635,115.8817
853,26.1619,-98.2871, , ,195.2635,115.6361
859,26.3179,69.6986, , ,195.2635,116.5262
865,26.4739,21.4297, , ,195.2635,116.4621
871,26.6299,-65.4088, , ,195.2635,116.2322
877,26.7859,26.5746, , ,195.2635,116.7186
883,26.9419,268.2483, , ,195.2635,117.7890
889,27.0979,72.5667, , ,195.2635,116.9953
895,27.2539,135.7964, , ,195.2635,117.1059
901,27.4099,40.8344, , ,195.2635,116.3393
907,27.5659,-60.0578, , ,195.2635,115.6688
913,27.7219,-78.3580, , ,195.2635,115.3024
919,27.8779,114.8769, , ,195.2635,115.8010
925,28.0339,565.1667, , ,195.2635,117.3975
931,28.1899,177.9983, , ,195.2635,115.2736
937,28.3459,19.7767, , ,195.2635,113.9902
943,28.5019,55.3182, , ,195.2635,113.9707
949,28.6579,15.1608, , ,195.2635,113.7739
955,28.8139,64.2278, , ,195.2635,114.1237
961,28.9699,-53.2715, , ,195.2635,113.3669
967,29.1259,57.5688, , ,195.2635,113.7141
973,29.2819,-31.3932, , ,195.2635,113.2811
979,29.4379,-5.4417, , ,195.2635,113.1396
985,29.5939,298.6132, , ,195.2635,114.0370
991,29.7499,93.2422, , ,195.2635,112.5022
997,29.9059,23.8866, , ,195.2635,111.5574
1003,30.0619,51.7219, , ,195.2635,111.2013
1009,30.2179,75.8301, , ,195.2635,110.9857
1015,30.3739,-48.8616, , ,195.2635,110.0718
1021,30.5299,38.9399, , ,195.2635,110.0088
1027,30.6859,88.8531, , ,195.2635,109.6625
1033,30.8419,-4.9575, , ,195.2635,108.6556
1039,30.9979,97.4665, , ,195.2635,108.6921
1045,31.1539,59.2304, , ,195.2635,108.2254
1051,31.3099,157.8434, , ,195.2635,108.3898
1057,31.4659,-26.1896, , ,195.2635,107.1190
1063,31.6219,-25.6215, , ,195.2635,106.5757
1069,31.7779,-7.5896, , ,195.2635,106.4475
1075,31.9339,38.3234, , ,195.2635,106.4503
1081,32.0899,28.8308, , ,195.2635,106.1924
1087,32.2459,-81.5567, , ,195.2635,105.0069
1093,32.4019,-62.7906, , ,195.2635,104.6815
1099,32.5579,-3.1353, , ,195.2635,104.8039
1105,32.7139,160.6905, , ,195.2635,105.1128
1111,32.8699,-51.0870, , ,195.2635,103.6239
1117,33.0259,113.8612, , ,195.2635,103.9416
1123,33.1819,74.3776, , ,195.2635,102.9581
1129,33.3379,97.6639, , ,195.2635,102.6174
1135,33.4939,-69.1763, , ,195.2635,101.6898
1141,33.6499,111.9897, , ,195.2635,102.3262
1147,33.8059,64.5961, , ,195.2635,101.8427
1153,33.9619,74.9160, , ,195.2635,101.6411
1159,34.1179,73.8639, , ,195.2635,101.0703
1165,34.2739,-133.7329, , ,195.2635,99.4900
1171,34.4299,29.9147, , ,195.2635,99.7894
1177,34.5859,-96.3103, , ,195.2635,99.0674
1183,34.7419,-175.6793, , ,195.2635,98.5477
1189,34.8979,68.9032, , ,195.2635,99.6338
1195,35.0539,35.4547, , ,195.2635,99.0023
1201,35.2099,59.1006, , ,195.2635,98.6497
1207,35.3659,-28.6957, , ,195.2635,97.7205
1213,35.5219,86.3142, , ,195.2635,97.8757
1219,35.6779,169.1040, , ,195.2635,97.8661
1225,35.8339,-61.4203, , ,195.2635,96.2423
1231,35.9899,-25.7964, , ,195.2635,96.4548
1237,36.1459,3.7286, , ,195.2635,96.4316
1243,36.3019,64.2405, , ,195.2635,96.3651
1249,36.4579,82.7846, , ,195.2635,96.0804
1255,36.6139,9.6300, , ,195.2635,95.3151
1261,36.7699,8.1452, , ,195.2635,94.9218
1267,36.9259,15.6703, , ,195.2635,94.1860
1273,37.0819,63.3202, , ,195.2635,94.2797
1279,37.2379,-3.8730, , ,195.2635,94.3829
1285,37.3939,51.6794, , ,195.2635,94.6380
1291,37.5499,44.6600, , ,195.2635,94.3742
1297,37.7059,103.2364, , ,195.2635,94.2695
1303,37.8619,-29.4157, , ,195.2635,93.1437
1309,38.0179,-66.1805, , ,195.2635,92.4905
1315,38.1739,-22.6907, , ,195.2635,92.2351
1321,38.3299,65.8870, , ,195.2635,92.9474
1327,38.4859,-90.6021, , ,195.2635,92.1804
1333,38.6419,-7.2284, , ,195.2635,92.5542
1339,38.7979,-39.9162, , ,195.2635,92.2998
1345,38.9539,-60.7772, , ,195.2635,91.9523
1351,39.1099,29.2174, , ,195.2635,92.0501
1357,39.2659,-22.7496, , ,195.2635,91.4545
1363,39.4219,11.7951, , ,195.2635,91.5429
1369,39.5779,-7.5318, , ,195.2635,91.5500
1375,39.7339,-14.5720, , ,195.2635,91.6241
1381,39.8899,-39.0004, , ,195.2635,91.6033
1384,39.9679,1.7181, , ,195.2635,91.8627