Folder: labo/2021/xrd/cif_files

File: 1447556.csv
GENERAL$,
1,0
1.4,0.02129
1.8,0.01685
2.2,0.01611
2.6,0.02032
3,0.0654
3.4,0.09995
3.8,0.02858
4.2,0.07139
4.6,29.85603
5,0.04674
5.4,0.06007
5.8,0.05813
6.2,0.05173
6.6,0.18209
7,0.01801
7.4,0.0236
7.8,0.28485
8.2,0.06286
8.6,0.07547
9,0.05313
9.4,0.02865
9.8,0.09956
10.2,0.11143
10.6,0.01099
11,0.02441
11.4,0.03407
11.8,0.0061
12.2,0.00164
12.6,0.03058
13,0.20273
13.4,0.05036
13.8,0.52032
14.2,0.06797
14.6,0.00832
15,0.00365
15.4,0.00258
15.8,0.01768
16.2,0.31345
16.6,0.01725
17,0.00609
17.4,8.9E-4
17.8,7.7E-4
18.2,0.00422
18.6,0.02288
19,0.12126
19.4,0.00467
19.8,0.18254
20.2,0.0061
20.6,0.0562
21,0.02452
21.4,0.03273
21.8,0.04614
22.2,0.00579
22.6,0.03786
23,0.08204
23.4,0.03939
23.8,0.01011
24.2,0.13722
24.6,0.22001
25,0.02228
25.4,0.02355
25.8,0.00393
26.2,0.00466
26.6,0.01629
27,0.03037
27.4,0.01285
27.8,0.01122
28.2,0.03593
28.6,0.02076
29,0.0237
29.4,0.13057
29.8,0.11441
30.2,0.04425
30.6,0.05193
31,0.01874
31.4,0.13082
31.8,0.00469
32.2,0.03337
32.6,0.14018
33,0.02504
33.4,0.01495
33.8,0.03618
34.2,0.06898
34.6,0.02406
35,0.01847
35.4,0.02389
35.8,0.0296
36.2,0.00707
36.6,0.02774
37,0.00657
37.4,0.01134
37.8,0.0498
38.2,0.01369
38.6,0.02067
39,0.0092
39.4,0.01171
39.8,0.0659
40.2,0.02414
40.6,0.02331
41,0.01244
41.4,0.1157
41.8,0.04162
42.2,0.03131
42.6,0.05581
43,0.03972
43.4,0.10274
43.8,0.0869
44.2,0.13212
44.6,0.05851
45,0.00576
45.4,0.04719
45.8,0.00454
46.2,0.01146
46.6,0.02338
47,0.06726
47.4,0.03629
47.8,0.01677
48.2,0.00602
48.6,0.02283
49,0.01189
49.4,0.00355
49.8,0.01595
50.2,0.02368
50.6,0.01527
51,0.01671
51.4,0.01451
51.8,0.0072
52.2,0.00747
52.6,0.01362
53,0.02045
53.4,0.00801
53.8,0.03408
54.2,0.01563
54.6,0.02562
55,0.03575
55.4,0.01154
55.8,0.01735
56.2,0.03179
56.6,0.01079
57,0.00513
57.4,0.00888
57.8,0.01429
58.2,0.01898
58.6,0.02279
59,0.01192
59.4,0.0159
59.8,0.00643
60.2,0.00681
60.6,0.00379
61,0.02275
61.4,0.0202
61.8,0.01149
62.2,0.01048
62.6,0.0135
63,0.01626
63.4,0.00666
63.8,0.0051
64.2,0.02138
64.6,0.00468
65,0.01464
65.4,0.01306
65.8,0.00675
66.2,0.01194
66.6,0.01124
67,0.00452
67.4,0.01445
67.8,0.01297
68.2,0.00806
68.6,0.00567
69,0.01346
69.4,0.00405
69.8,0.0049
70.2,0.00203
70.6,0.00488
71,0.00358
71.4,0.00309
71.8,0.00483
72.2,0.00217
72.6,0.00221
73,0.00305
73.4,0.00248
73.8,0.00448
74.2,0.00395
74.6,0.00223
75,0.00307
75.4,0.00248
75.8,0.00284
76.2,0.00291
76.6,0.00242
77,0.00557
77.4,0.00259
77.8,0.00324
78.2,0.00371
78.6,0.00272
79,0.00469
79.4,0.0034
79.8,0.00544
80.2,0.00342
80.6,0.00254
81,0.00339
81.4,0.00619
81.8,0.00452
82.2,0.00346
82.6,0.00399
83,0.00322
83.4,0.00707
83.8,0.00459
84.2,0.00534
84.6,0.00439
85,0.00272
85.4,0.00397
85.8,0.00528
86.2,0.00429
86.6,0.00356
87,0.00534
87.4,0.0029
87.8,0.00529
88.2,0.00386
88.6,0.0043
89,0.00349
89.4,0.00287
89.8,0.00358
90.2,0.00486
90.6,0.00308
91,0.00272
91.4,0.00337
91.8,0.00454
92.2,0.00447
92.6,0.00276
93,0.00338
93.4,0.00254
93.8,0.00176
94.2,0.00422
94.6,0.00448
95,0.00318
95.4,0.00292
95.8,0.00346
96.2,0.00316
96.6,0.0029
97,0.00216
97.4,0.00372
97.8,0.00342
98.2,0.0019
98.6,0.00206
99,0.00307
99.4,0.00259
99.8,0.00165
100.2,0.00242
100.6,0.00174
101,0.00256
101.4,0.00211
101.8,0.00229
102.2,0.00156
102.6,0.00151
103,0.0022
103.4,0.00314
103.8,0.00261
104.2,0.00183
104.6,0.0035
105,0.00237
105.4,0.00236
105.8,0.00198
106.2,0.00211
106.6,0.00175
107,0.00139
107.4,0.0019
107.8,0.00172
108.2,0.00158
108.6,0.0018
109,0.00121
109.4,0.00208
109.8,0.00219
110.2,0.00188
110.6,0.002
111,0.00207
111.4,0.00176
111.8,0.00108
112.2,0.00112
112.6,0.00138
113,0.00146
113.4,0.00105
113.8,0.00131
114.2,0.00168
114.6,0.0015
115,0.00126
115.4,0.00139
115.8,0.00336
116.2,0.00343
116.6,0.00279
117,0.0032
117.4,0.00284
117.8,0.00204
118.2,0.00168
118.6,0.00148
119,0.00103
119.4,0.0017
119.8,0.00163
119.99,0.00152

File: ja408084j_si_004.csv
GENERAL$,
1,0
1.4,0.02101
1.8,0.01662
2.2,0.01586
2.6,0.01986
3,0.06031
3.4,0.11624
3.8,0.02801
4.2,0.0655
4.6,95.53335
5,0.0497
5.4,0.05258
5.8,0.07141
6.2,0.043
6.6,0.26828
7,0.01807
7.4,0.02219
7.8,0.18696
8.2,0.08068
8.6,0.442
9,0.03588
9.4,0.03392
9.8,0.52669
10.2,0.01986
10.6,0.00798
11,0.01731
11.4,0.05759
11.8,0.02146
12.2,0.00179
12.6,0.19581
13,0.50623
13.4,0.07852
13.8,1.67485
14.2,0.833
14.6,0.18607
15,0.00747
15.4,0.00502
15.8,0.00935
16.2,0.02045
16.6,0.05583
17,0.03474
17.4,0.00236
17.8,6.5E-4
18.2,0.01219
18.6,0.00841
19,0.4211
19.4,0.0122
19.8,0.054
20.2,0.00288
20.6,0.00688
21,0.0116
21.4,0.20796
21.8,0.00428
22.2,0.00223
22.6,0.00504
23,0.01612
23.4,0.22526
23.8,0.08054
24.2,0.0408
24.6,0.01063
25,0.04262
25.4,0.09905
25.8,0.00312
26.2,0.01539
26.6,0.0737
27,0.1556
27.4,0.01186
27.8,0.08788
28.2,0.33261
28.6,0.16765
29,0.00502
29.4,0.00737
29.8,0.16773
30.2,0.00977
30.6,0.05373
31,0.15092
31.4,0.01366
31.8,0.01743
32.2,0.02949
32.6,0.02307
33,0.07765
33.4,0.10119
33.8,0.03345
34.2,0.06657
34.6,0.00462
35,0.00667
35.4,0.04322
35.8,0.03406
36.2,0.00465
36.6,0.06771
37,0.06034
37.4,0.00456
37.8,0.03008
38.2,0.02476
38.6,0.0111
39,0.08177
39.4,0.0034
39.8,0.02364
40.2,0.02397
40.6,0.05745
41,0.04372
41.4,0.01859
41.8,0.03087
42.2,0.00673
42.6,0.01743
43,0.00868
43.4,0.01829
43.8,0.01828
44.2,0.01147
44.6,0.00945
45,0.00648
45.4,0.01621
45.8,0.02155
46.2,0.00389
46.6,0.01299
47,0.04657
47.4,0.01051
47.8,0.02064
48.2,0.06239
48.6,0.0126
49,0.01902
49.4,0.005
49.8,0.00603
50.2,0.0083
50.6,0.01525
51,0.02519
51.4,0.011
51.8,0.01019
52.2,0.00751
52.6,0.01023
53,0.00915
53.4,0.00527
53.8,0.00915
54.2,0.03926
54.6,0.02728
55,0.02276
55.4,0.0166
55.8,0.0246
56.2,0.01178
56.6,0.01914
57,0.01662
57.4,0.00475
57.8,0.02387
58.2,0.03368
58.6,0.01387
59,0.00956
59.4,0.02074
59.8,0.00556
60.2,0.00576
60.6,0.00913
61,0.00566
61.4,0.03312
61.8,0.018
62.2,0.01632
62.6,0.01148
63,0.00985
63.4,0.00723
63.8,0.01001
64.2,0.00254
64.6,0.00819
65,0.00436
65.4,0.01032
65.8,0.00318
66.2,0.0066
66.6,0.00352
67,0.00299
67.4,0.00169
67.8,0.01042
68.2,0.00264
68.6,0.00484
69,0.00458
69.4,0.00572
69.8,0.00539
70.2,0.00297
70.6,0.00157
71,0.00262
71.4,0.00207
71.8,0.00287
72.2,0.00358
72.6,0.0021
73,0.00287
73.4,0.00219
73.8,0.00235
74.2,0.00252
74.6,0.00233
75,0.00113
75.4,0.00219
75.8,0.00237
76.2,0.00222
76.6,0.00316
77,0.00206
77.4,0.00297
77.8,0.00235
78.2,0.00191
78.6,0.00272
79,0.0026
79.4,0.00334
79.8,0.00225
80.2,0.00356
80.6,0.00277
81,0.00167
81.4,0.00279
81.8,0.00491
82.2,0.00351
82.6,0.00315
83,0.0037
83.4,0.00262
83.8,0.00525
84.2,0.00352
84.6,0.00367
85,0.00247
85.4,0.00233
85.8,0.00264
86.2,0.00313
86.6,0.00383
87,0.00221
87.4,0.00454
87.8,0.0018
88.2,0.00315
88.6,0.00317
89,0.00284
89.4,0.0024
89.8,0.00201
90.2,0.00263
90.6,0.00406
91,0.00292
91.4,0.00151
91.8,0.00324
92.2,0.00249
92.6,0.00358
93,0.00161
93.4,0.00217
93.8,0.00202
94.2,0.00178
94.6,0.00173
95,0.00231
95.4,0.0022
95.8,0.00174
96.2,0.00224
96.6,0.00199
97,0.00161
97.4,0.00114
97.8,0.00169
98.2,0.00225
98.6,0.00147
99,0.00156
99.4,0.00142
99.8,0.00244
100.2,0.00153
100.6,0.00167
101,0.0013
101.4,0.00145
101.8,0.00118
102.2,0.00129
102.6,0.0011
103,7.6E-4
103.4,0.00109
103.8,0.00165
104.2,0.00137
104.6,9.7E-4
105,0.00153
105.4,0.00169
105.8,0.00146
106.2,0.00141
106.6,0.00139
107,0.00115
107.4,7.4E-4
107.8,5.1E-4
108.2,0.00109
108.6,0.00139
109,0.00121
109.4,6.8E-4
109.8,9.1E-4
110.2,9.5E-4
110.6,0.00136
111,0.00141
111.4,0.00111
111.8,9.6E-4
112.2,8.3E-4
112.6,6E-4
113,0.00102
113.4,0.00112
113.8,8.1E-4
114.2,6.7E-4
114.6,8.9E-4
115,8.8E-4
115.4,0.00103
115.8,0.00108
116.2,0.00105
116.6,0.00236
117,0.00224
117.4,0.00157
117.8,0.00176
118.2,0.0016
118.6,0.00133
119,9.5E-4
119.4,9.7E-4
119.8,6.8E-4
119.99,6.8E-4

File: SC-009-C7SC03739B-s002.csv
2Î¸,I,
0,12
0,48
0.02609,24
0.08281,48
0,24
0,48
0.10508,48
0,24
0.13302,24
0,48
0.01347,24
2.9E-4,48
0,48
0,24
0.01484,48
0.01124,12
0.03428,48
0.04512,24
0.02623,24
0.00696,24
0.00481,24
0.02143,48
0,48
0,48
0,48
0,48
0,48
0.01587,24
0,24
0,48
0,48
5.5E-4,48
0,24
0,48
0.0023,48
6.2E-4,48
0,48
0,48
0,24
0,24
0,48
0.00262,48
0,48
0,48
0.0019,48
6.3E-4,48
0,48
0,24
0.00328,48
2.6E-4,48
8.7E-4,48
0,24
0.00651,24
0.00521,48
1E-4,24
0,48
0,48
0,48
3E-4,48
0.0025,48
0.00756,48
0,48
0,48
0.00687,24
0,48
0,48
0,48
0,48
0,24
1.9E-4,48
9E-5,48
1.4E-4,24
2.5E-4,24
0,24
0,48
0,48
0.0051,48
3.9E-4,48
0,48
0,48
4.1E-4,24
0.00197,48
3.6E-4,24
2.2E-4,48
7.7E-4,48
6.5E-4,48
0,48
0.00114,48
1.5E-4,48
3E-5,48
6.1E-4,48
0,48
0,48
5.1E-4,24
1.7E-4,24
0,48
0,48
1E-4,24
0.00626,48
0,24
8E-5,48
1.1E-4,48
7E-5,24
0,24
0,48
0,48
0,48
0,48
1E-5,48
2E-5,48
0.00495,48
1E-5,48
0,48
0,48
0,24
0,48
0,48
0,48
0,48
0,24
0.0015,48
0,24
0,48
0,48
1.7E-4,48
1.1E-4,48
5.9E-4,48
0,48
0.0023,24
0,48
0,48
0,48
1E-5,48
3E-5,48
2E-4,24
0.00136,48
1E-5,24
0,48
0,24
3E-4,48
0,48
0,48
0,48
0,24
0,48
0,24
0,48
0,48
0,48
0,48
0,48
9E-5,48
0,48
2E-5,24
0,48
7.7E-4,48
5E-5,48
0,48
0,48
3E-5,48
1E-5,48
3E-5,48
8.5E-4,48
1.7E-4,48
0,48
0,48
4.8E-4,48
5.4E-4,24
0,48
2E-5,48
0,48
0,48
0,48
0,48
4.1E-4,48
0,48
0,24
0,48
2.8E-4,24
4E-5,48
8E-5,48
0,48
2.4E-4,24
0,48
0,48
0,48
0,24
2E-5,48
3E-5,48
0,48
7E-5,48
7E-5,48
0,48
0,48
0,48
0,48
0,48
0,48
0,48
4E-5,48
0,48
2E-5,48
2.2E-4,48
0,48
1E-5,24
0,48
0,48
1E-4,24
4E-5,48
0,48
8E-5,48
3E-5,48
0.00194,48
0,48
0,24
0,48
5E-5,24
0,24
0,48
2.6E-4,24
0,24
0,48
0,48
5E-5,48
0,48
4E-5,24
2E-4,48
3E-5,48
0,48
5E-5,24
0,48
0,48
5.4E-4,48
0,48
1.4E-4,48
0,24
7E-5,24
1.8E-4,48
2.1E-4,48
0,24
0,48
0,48
8E-5,48
0,48
0,48
3E-4,48
0,48
0,48
0,48
1.8E-4,48
5E-5,48
0.00134,12
0,48
3.3E-4,48
0.00205,48
0,48
0,48
0,48
0,48
0,48
4E-5,48
5E-5,48
0,48
0,48
0,48
1E-5,48
2E-5,24
0,48
0,48
0,24
0,24
0,48
0,24
9E-5,48
0,48
8.4E-4,48
0,48
0,48
1E-5,48
1E-4,48
3.6E-4,48
4.9E-4,48
3.6E-4,48
1.1E-4,48
9.2E-4,48
2E-5,48
1E-5,48
0,48
0,48
0,48
0,48
3.2E-4,48
7.5E-4,48
1.6E-4,48
2.9E-4,48
0,24
0,24
2.3E-4,48
6.1E-4,48

File: simulado_pcn224.csv
2theta,I
37.11768,12
0.13684,48
0.0993,24
1.7E-4,12
0.0035,24
0.04477,24
0.0012,48
0.03968,48
0.13431,24
0.00454,48
0.00778,48
0.04431,6
0.04554,48
1.9E-4,48
0.04129,48
0.02359,24
0.00618,24
0.00321,48
0.00338,48
0.02901,24
0.01084,24
0.03654,48
0.00235,48
0.05484,12
0.00547,48
0.00863,48
0.00282,48
6E-5,48
0.00964,48
1E-4,48
1.9E-4,48
0.05497,48
0.00206,48
4.6E-4,24
0.00255,48
0.01141,48
0.0119,24
0.01738,48
0.00319,24
0,48
0.00502,48
0.00424,48
0.00965,48
9.5E-4,24
0.00806,48
0.00542,48
4E-4,24
0.00125,48
0.00287,48
0.0147,48
0.00554,48
9E-5,24
0.00365,48
0.01106,24
0.00313,48
0.00505,48
0.00167,24
0.05617,48
9.7E-4,48
5.8E-4,48
0.03223,24
9E-4,48
0.01077,48
0.00303,24
0.01541,48
0.00579,48
0.0021,48
7E-5,48
0.0011,48
1E-4,24
4.2E-4,48
0.00242,48
1.9E-4,48
0.00695,24
7.9E-4,48
2.5E-4,24
6.8E-4,24
2.8E-4,48
6E-4,48
4.8E-4,24
7.1E-4,48
6.4E-4,48
3.6E-4,24
0.00456,48
0.00348,48
0.00379,48
0.00177,48
6.7E-4,24
0.00137,48
0,48
0.00203,48
0.00393,48
0.00116,24
0.00137,48
0.00135,48
2E-5,48
2.3E-4,48
1E-5,48
0.00114,48
1.4E-4,48
0.00159,48
3.8E-4,48
7E-5,24
0,48
1.9E-4,48
0.00158,48
0.00122,48
6.6E-4,48
6.5E-4,48
6.7E-4,48
5.9E-4,48
6E-5,48
5.8E-4,24
0.00134,48
0.00751,48
9E-5,24
0.00252,48
8E-4,24
0.00254,48
1E-3,48
2.8E-4,48
0.00253,48
0.00156,48
1E-5,48
7.1E-4,48
1.6E-4,48
0.00124,48
5E-4,48
0,12
0.0019,48
2.7E-4,48
0.00503,24
2.7E-4,48
3.4E-4,48
0.00153,48
0.00344,48
0.00302,48
9E-5,24
0.00241,48
1.5E-4,48
8.5E-4,48
1.3E-4,48
0.00105,48
5.2E-4,48
1.6E-4,48
0.00101,24
0.00633,48
6.9E-4,48
0.00332,48
2.8E-4,48
0.00232,48
6.2E-4,48
0.00171,48
2.7E-4,48
0.00141,48
7E-5,48
5.2E-4,48
2E-5,48
0.00446,48
1E-5,24
3.1E-4,48
1.8E-4,48
8.4E-4,48
0.00567,48
2.1E-4,48
2.3E-4,48
5E-4,48
8E-5,48
2.4E-4,48
1E-3,48
0,48
4.3E-4,48
0.00318,48
1E-5,48
4E-5,48
1E-4,48
0.0034,48
4E-5,24
0.00311,48
1E-5,24
6E-4,48
0.00221,48
0.00116,48
6.3E-4,48
1.6E-4,24
5.8E-4,48
0.00552,48
7E-5,48
2.6E-4,48
0,48
0.00108,48
1E-4,24
1.4E-4,24
2.6E-4,48
3E-5,48
3E-4,48
0.00168,48
3.1E-4,48
3E-5,48
8.6E-4,48
3.9E-4,48
0.00109,24
6.6E-4,48
3E-5,48
1.3E-4,48
6.3E-4,24
2.5E-4,48
2.7E-4,48
0.00314,48
2.1E-4,48
1.6E-4,48
1.7E-4,48
9.1E-4,48
1E-5,24
5E-4,48
1.9E-4,48
2.9E-4,48
5E-5,48
0,48
1E-5,48
1E-4,48
1E-5,48
0,48
0.0029,48
1.6E-4,48
1E-5,48
5E-5,48
1E-5,48
0.00107,48
3.5E-4,48
4E-5,48
2E-5,48
0.00263,48
9.6E-4,48
0,48
4.1E-4,48
1.9E-4,48
0.00242,48
2E-5,48
9.6E-4,48
9E-4,48
3.9E-4,24
1E-5,48
0,24
0,48
7E-5,48
1.5E-4,48
3.4E-4,48
7.3E-4,48
3.3E-4,48
8.9E-4,24
5.2E-4,24
6.3E-4,48
0.00172,48
3.1E-4,48
1.3E-4,48
2E-5,48
8.5E-4,24
4.1E-4,48
3E-4,48
5E-5,48
1E-5,48
1.8E-4,48
1.1E-4,48
2.5E-4,48
1E-5,48
6E-5,48
8.9E-4,48
8.1E-4,48
2E-5,48
1.8E-4,48
0,48
0,48
0.00118,24
3.2E-4,48
7E-5,48
9E-5,48
0.00121,48
0,48
1E-4,24
1.5E-4,48
6E-5,24
4E-5,48
1.8E-4,48
2.7E-4,24
1.5E-4,48
5.3E-4,48
0.00328,48
6.5E-4,48
1.4E-4,48
0.00161,48
1.4E-4,48
1.4E-4,48
2.1E-4,48
1.2E-4,24